Task,trials.thisRepN,trials.thisTrialN,trials.thisN,trials.thisIndex,signal_intensity,constant Value,response,Subject_Action,Stimulus_Present,time_response,signal_on_stimuluspos1,signal_on_stimuluspos2,stimulus_pos,button_pressed,stimulus_name_pos1,stimulus_name_pos2,random_intensity,session,participant,date,expName,
2IFC,0,0,0,0,5,-1,c,o,r,0.4681352999759838,False,True,2,2,stimulus2AFC2_2IFC_2020_Mar_23_1712_1,stimulus2AFC2_2IFC_2020_Mar_23_1712_2,False,1,2AFC2,2020_Mar_23_1712,2IFC,
2IFC,1,0,1,0,5,-1,c,o,r,0.5181136999744922,False,True,2,2,stimulus2AFC2_2IFC_2020_Mar_23_1712_3,stimulus2AFC2_2IFC_2020_Mar_23_1712_4,False,1,2AFC2,2020_Mar_23_1712,2IFC,
2IFC,2,0,2,0,5,-1,c,o,r,0.4180288999923505,False,True,2,2,stimulus2AFC2_2IFC_2020_Mar_23_1712_5,stimulus2AFC2_2IFC_2020_Mar_23_1712_6,False,1,2AFC2,2020_Mar_23_1712,2IFC,
2IFC,3,0,3,0,5,-1,c,o,r,0.23425069998484105,True,False,1,1,stimulus2AFC2_2IFC_2020_Mar_23_1712_7,stimulus2AFC2_2IFC_2020_Mar_23_1712_8,False,1,2AFC2,2020_Mar_23_1712,2IFC,
2IFC,4,0,4,0,5,-1,w,r,o,0.43490140000358224,True,False,1,2,stimulus2AFC2_2IFC_2020_Mar_23_1712_9,stimulus2AFC2_2IFC_2020_Mar_23_1712_10,False,1,2AFC2,2020_Mar_23_1712,2IFC,
2IFC,5,0,5,0,5,-1,c,o,r,0.4171158999670297,False,True,2,2,stimulus2AFC2_2IFC_2020_Mar_23_1712_11,stimulus2AFC2_2IFC_2020_Mar_23_1712_12,False,1,2AFC2,2020_Mar_23_1712,2IFC,
2IFC,6,0,6,0,5,-1,c,o,r,0.3516524000442587,True,False,1,1,stimulus2AFC2_2IFC_2020_Mar_23_1712_13,stimulus2AFC2_2IFC_2020_Mar_23_1712_14,False,1,2AFC2,2020_Mar_23_1712,2IFC,
2IFC,7,0,7,0,5,-1,c,o,r,0.5179187000030652,False,True,2,2,stimulus2AFC2_2IFC_2020_Mar_23_1712_15,stimulus2AFC2_2IFC_2020_Mar_23_1712_16,False,1,2AFC2,2020_Mar_23_1712,2IFC,
2IFC,8,0,8,0,5,-1,c,o,r,0.234770999988541,True,False,1,1,stimulus2AFC2_2IFC_2020_Mar_23_1712_17,stimulus2AFC2_2IFC_2020_Mar_23_1712_18,False,1,2AFC2,2020_Mar_23_1712,2IFC,
2IFC,9,0,9,0,5,-1,c,o,r,0.5323659999994561,False,True,2,2,stimulus2AFC2_2IFC_2020_Mar_23_1712_19,stimulus2AFC2_2IFC_2020_Mar_23_1712_20,False,1,2AFC2,2020_Mar_23_1712,2IFC,
2IFC,10,0,10,0,5,-1,c,o,r,0.4518106000032276,False,True,2,2,stimulus2AFC2_2IFC_2020_Mar_23_1712_21,stimulus2AFC2_2IFC_2020_Mar_23_1712_22,False,1,2AFC2,2020_Mar_23_1712,2IFC,
2IFC,11,0,11,0,5,-1,w,r,o,0.25122380000539124,False,True,2,1,stimulus2AFC2_2IFC_2020_Mar_23_1712_23,stimulus2AFC2_2IFC_2020_Mar_23_1712_24,False,1,2AFC2,2020_Mar_23_1712,2IFC,
2IFC,12,0,12,0,5,-1,c,o,r,0.3520376000087708,False,True,2,2,stimulus2AFC2_2IFC_2020_Mar_23_1712_25,stimulus2AFC2_2IFC_2020_Mar_23_1712_26,False,1,2AFC2,2020_Mar_23_1712,2IFC,
2IFC,13,0,13,0,5,-1,c,o,r,0.21831860003294423,True,False,1,1,stimulus2AFC2_2IFC_2020_Mar_23_1712_27,stimulus2AFC2_2IFC_2020_Mar_23_1712_28,False,1,2AFC2,2020_Mar_23_1712,2IFC,
2IFC,14,0,14,0,5,-1,c,o,r,0.21804519998840988,True,False,1,1,stimulus2AFC2_2IFC_2020_Mar_23_1712_29,stimulus2AFC2_2IFC_2020_Mar_23_1712_30,False,1,2AFC2,2020_Mar_23_1712,2IFC,
2IFC,15,0,15,0,5,-1,c,o,r,0.3334169999579899,False,True,2,2,stimulus2AFC2_2IFC_2020_Mar_23_1712_31,stimulus2AFC2_2IFC_2020_Mar_23_1712_32,False,1,2AFC2,2020_Mar_23_1712,2IFC,
2IFC,16,0,16,0,5,-1,w,r,o,0.33766970003489405,False,True,2,1,stimulus2AFC2_2IFC_2020_Mar_23_1712_33,stimulus2AFC2_2IFC_2020_Mar_23_1712_34,False,1,2AFC2,2020_Mar_23_1712,2IFC,
2IFC,17,0,17,0,5,-1,c,o,r,0.18481180001981556,True,False,1,1,stimulus2AFC2_2IFC_2020_Mar_23_1712_35,stimulus2AFC2_2IFC_2020_Mar_23_1712_36,False,1,2AFC2,2020_Mar_23_1712,2IFC,
2IFC,18,0,18,0,5,-1,c,o,r,0.2676536999642849,False,True,2,2,stimulus2AFC2_2IFC_2020_Mar_23_1712_37,stimulus2AFC2_2IFC_2020_Mar_23_1712_38,False,1,2AFC2,2020_Mar_23_1712,2IFC,
2IFC,19,0,19,0,5,-1,c,o,r,0.3365328999934718,True,False,1,1,stimulus2AFC2_2IFC_2020_Mar_23_1712_39,stimulus2AFC2_2IFC_2020_Mar_23_1712_40,False,1,2AFC2,2020_Mar_23_1712,2IFC,
2IFC,20,0,20,0,5,-1,c,o,r,0.21807899995474145,False,True,2,2,stimulus2AFC2_2IFC_2020_Mar_23_1712_41,stimulus2AFC2_2IFC_2020_Mar_23_1712_42,False,1,2AFC2,2020_Mar_23_1712,2IFC,
2IFC,21,0,21,0,5,-1,c,o,r,0.3351849999744445,True,False,1,1,stimulus2AFC2_2IFC_2020_Mar_23_1712_43,stimulus2AFC2_2IFC_2020_Mar_23_1712_44,False,1,2AFC2,2020_Mar_23_1712,2IFC,
2IFC,22,0,22,0,5,-1,c,o,r,0.20046670001465827,True,False,1,1,stimulus2AFC2_2IFC_2020_Mar_23_1712_45,stimulus2AFC2_2IFC_2020_Mar_23_1712_46,False,1,2AFC2,2020_Mar_23_1712,2IFC,
2IFC,23,0,23,0,5,-1,c,o,r,0.3546493999892846,True,False,1,1,stimulus2AFC2_2IFC_2020_Mar_23_1712_47,stimulus2AFC2_2IFC_2020_Mar_23_1712_48,False,1,2AFC2,2020_Mar_23_1712,2IFC,
2IFC,24,0,24,0,5,-1,w,r,o,0.35123239998938516,False,True,2,1,stimulus2AFC2_2IFC_2020_Mar_23_1712_49,stimulus2AFC2_2IFC_2020_Mar_23_1712_50,False,1,2AFC2,2020_Mar_23_1712,2IFC,
2IFC,25,0,25,0,5,-1,c,o,r,0.4014642999973148,False,True,2,2,stimulus2AFC2_2IFC_2020_Mar_23_1712_51,stimulus2AFC2_2IFC_2020_Mar_23_1712_52,False,1,2AFC2,2020_Mar_23_1712,2IFC,
2IFC,26,0,26,0,5,-1,c,o,r,0.385731200047303,False,True,2,2,stimulus2AFC2_2IFC_2020_Mar_23_1712_53,stimulus2AFC2_2IFC_2020_Mar_23_1712_54,False,1,2AFC2,2020_Mar_23_1712,2IFC,
2IFC,27,0,27,0,5,-1,c,o,r,0.28369349997956306,True,False,1,1,stimulus2AFC2_2IFC_2020_Mar_23_1712_55,stimulus2AFC2_2IFC_2020_Mar_23_1712_56,False,1,2AFC2,2020_Mar_23_1712,2IFC,
2IFC,28,0,28,0,5,-1,c,o,r,0.21797290001995862,True,False,1,1,stimulus2AFC2_2IFC_2020_Mar_23_1712_57,stimulus2AFC2_2IFC_2020_Mar_23_1712_58,False,1,2AFC2,2020_Mar_23_1712,2IFC,
2IFC,29,0,29,0,5,-1,w,r,o,0.28591390000656247,True,False,1,2,stimulus2AFC2_2IFC_2020_Mar_23_1712_59,stimulus2AFC2_2IFC_2020_Mar_23_1712_60,False,1,2AFC2,2020_Mar_23_1712,2IFC,
2IFC,30,0,30,0,5,-1,c,o,r,0.26718919997802004,False,True,2,2,stimulus2AFC2_2IFC_2020_Mar_23_1712_61,stimulus2AFC2_2IFC_2020_Mar_23_1712_62,False,1,2AFC2,2020_Mar_23_1712,2IFC,
2IFC,31,0,31,0,5,-1,c,o,r,0.4189011999987997,True,False,1,1,stimulus2AFC2_2IFC_2020_Mar_23_1712_63,stimulus2AFC2_2IFC_2020_Mar_23_1712_64,False,1,2AFC2,2020_Mar_23_1712,2IFC,
2IFC,32,0,32,0,5,-1,c,o,r,0.20090090000303462,True,False,1,1,stimulus2AFC2_2IFC_2020_Mar_23_1712_65,stimulus2AFC2_2IFC_2020_Mar_23_1712_66,False,1,2AFC2,2020_Mar_23_1712,2IFC,
2IFC,33,0,33,0,5,-1,c,o,r,0.41906520002521574,False,True,2,2,stimulus2AFC2_2IFC_2020_Mar_23_1712_67,stimulus2AFC2_2IFC_2020_Mar_23_1712_68,False,1,2AFC2,2020_Mar_23_1712,2IFC,
2IFC,34,0,34,0,5,-1,w,r,o,0.3343893999699503,False,True,2,1,stimulus2AFC2_2IFC_2020_Mar_23_1712_69,stimulus2AFC2_2IFC_2020_Mar_23_1712_70,False,1,2AFC2,2020_Mar_23_1712,2IFC,
2IFC,35,0,35,0,5,-1,c,o,r,0.23396650003269315,True,False,1,1,stimulus2AFC2_2IFC_2020_Mar_23_1712_71,stimulus2AFC2_2IFC_2020_Mar_23_1712_72,False,1,2AFC2,2020_Mar_23_1712,2IFC,
2IFC,36,0,36,0,5,-1,c,o,r,0.35075089999008924,False,True,2,2,stimulus2AFC2_2IFC_2020_Mar_23_1712_73,stimulus2AFC2_2IFC_2020_Mar_23_1712_74,False,1,2AFC2,2020_Mar_23_1712,2IFC,
2IFC,37,0,37,0,5,-1,c,o,r,0.4338430999778211,False,True,2,2,stimulus2AFC2_2IFC_2020_Mar_23_1712_75,stimulus2AFC2_2IFC_2020_Mar_23_1712_76,False,1,2AFC2,2020_Mar_23_1712,2IFC,
2IFC,38,0,38,0,5,-1,c,o,r,0.3513710999977775,True,False,1,1,stimulus2AFC2_2IFC_2020_Mar_23_1712_77,stimulus2AFC2_2IFC_2020_Mar_23_1712_78,False,1,2AFC2,2020_Mar_23_1712,2IFC,
2IFC,39,0,39,0,5,-1,c,o,r,0.2835825000074692,True,False,1,1,stimulus2AFC2_2IFC_2020_Mar_23_1712_79,stimulus2AFC2_2IFC_2020_Mar_23_1712_80,False,1,2AFC2,2020_Mar_23_1712,2IFC,
2IFC,40,0,40,0,5,-1,c,o,r,0.40156619995832443,True,False,1,1,stimulus2AFC2_2IFC_2020_Mar_23_1712_81,stimulus2AFC2_2IFC_2020_Mar_23_1712_82,False,1,2AFC2,2020_Mar_23_1712,2IFC,
2IFC,41,0,41,0,5,-1,c,o,r,0.4029265000135638,True,False,1,1,stimulus2AFC2_2IFC_2020_Mar_23_1712_83,stimulus2AFC2_2IFC_2020_Mar_23_1712_84,False,1,2AFC2,2020_Mar_23_1712,2IFC,
2IFC,42,0,42,0,5,-1,c,o,r,0.21814370003994554,False,True,2,2,stimulus2AFC2_2IFC_2020_Mar_23_1712_85,stimulus2AFC2_2IFC_2020_Mar_23_1712_86,False,1,2AFC2,2020_Mar_23_1712,2IFC,
2IFC,43,0,43,0,5,-1,w,r,o,0.3680851000244729,False,True,2,1,stimulus2AFC2_2IFC_2020_Mar_23_1712_87,stimulus2AFC2_2IFC_2020_Mar_23_1712_88,False,1,2AFC2,2020_Mar_23_1712,2IFC,
2IFC,44,0,44,0,5,-1,c,o,r,0.36992490000557154,True,False,1,1,stimulus2AFC2_2IFC_2020_Mar_23_1712_89,stimulus2AFC2_2IFC_2020_Mar_23_1712_90,False,1,2AFC2,2020_Mar_23_1712,2IFC,
2IFC,0,0,0,0,11,-1,c,o,r,0.25103630003286526,True,False,1,1,stimulus2AFC2_2IFC_2020_Mar_23_1712_91,stimulus2AFC2_2IFC_2020_Mar_23_1712_92,False,1,2AFC2,2020_Mar_23_1712,2IFC,
2IFC,1,0,1,0,11,-1,c,o,r,0.5034565000096336,True,False,1,1,stimulus2AFC2_2IFC_2020_Mar_23_1712_93,stimulus2AFC2_2IFC_2020_Mar_23_1712_94,False,1,2AFC2,2020_Mar_23_1712,2IFC,
2IFC,2,0,2,0,11,-1,c,o,r,0.4518034000066109,True,False,1,1,stimulus2AFC2_2IFC_2020_Mar_23_1712_95,stimulus2AFC2_2IFC_2020_Mar_23_1712_96,False,1,2AFC2,2020_Mar_23_1712,2IFC,
2IFC,3,0,3,0,11,-1,c,o,r,0.2337872000061907,False,True,2,2,stimulus2AFC2_2IFC_2020_Mar_23_1712_97,stimulus2AFC2_2IFC_2020_Mar_23_1712_98,False,1,2AFC2,2020_Mar_23_1712,2IFC,
2IFC,4,0,4,0,11,-1,c,o,r,0.30168650002451614,True,False,1,1,stimulus2AFC2_2IFC_2020_Mar_23_1712_99,stimulus2AFC2_2IFC_2020_Mar_23_1712_100,False,1,2AFC2,2020_Mar_23_1712,2IFC,
2IFC,5,0,5,0,11,-1,c,o,r,0.40112840000074357,False,True,2,2,stimulus2AFC2_2IFC_2020_Mar_23_1712_101,stimulus2AFC2_2IFC_2020_Mar_23_1712_102,False,1,2AFC2,2020_Mar_23_1712,2IFC,
2IFC,6,0,6,0,11,-1,c,o,r,0.2991058999905363,True,False,1,1,stimulus2AFC2_2IFC_2020_Mar_23_1712_103,stimulus2AFC2_2IFC_2020_Mar_23_1712_104,False,1,2AFC2,2020_Mar_23_1712,2IFC,
2IFC,7,0,7,0,11,-1,c,o,r,0.3195057000266388,False,True,2,2,stimulus2AFC2_2IFC_2020_Mar_23_1712_105,stimulus2AFC2_2IFC_2020_Mar_23_1712_106,False,1,2AFC2,2020_Mar_23_1712,2IFC,
2IFC,8,0,8,0,11,-1,c,o,r,0.26770700002089143,True,False,1,1,stimulus2AFC2_2IFC_2020_Mar_23_1712_107,stimulus2AFC2_2IFC_2020_Mar_23_1712_108,False,1,2AFC2,2020_Mar_23_1712,2IFC,
2IFC,9,0,9,0,11,-1,c,o,r,0.23446639999747276,True,False,1,1,stimulus2AFC2_2IFC_2020_Mar_23_1712_109,stimulus2AFC2_2IFC_2020_Mar_23_1712_110,False,1,2AFC2,2020_Mar_23_1712,2IFC,
2IFC,10,0,10,0,11,-1,c,o,r,0.2332892999984324,True,False,1,1,stimulus2AFC2_2IFC_2020_Mar_23_1712_111,stimulus2AFC2_2IFC_2020_Mar_23_1712_112,False,1,2AFC2,2020_Mar_23_1712,2IFC,
2IFC,11,0,11,0,11,-1,c,o,r,0.2015409999876283,False,True,2,2,stimulus2AFC2_2IFC_2020_Mar_23_1712_113,stimulus2AFC2_2IFC_2020_Mar_23_1712_114,False,1,2AFC2,2020_Mar_23_1712,2IFC,
2IFC,12,0,12,0,11,-1,c,o,r,0.16804779996164143,True,False,1,1,stimulus2AFC2_2IFC_2020_Mar_23_1712_115,stimulus2AFC2_2IFC_2020_Mar_23_1712_116,False,1,2AFC2,2020_Mar_23_1712,2IFC,
2IFC,13,0,13,0,11,-1,c,o,r,0.34908910002559423,True,False,1,1,stimulus2AFC2_2IFC_2020_Mar_23_1712_117,stimulus2AFC2_2IFC_2020_Mar_23_1712_118,False,1,2AFC2,2020_Mar_23_1712,2IFC,
2IFC,14,0,14,0,11,-1,c,o,r,0.2179232999915257,True,False,1,1,stimulus2AFC2_2IFC_2020_Mar_23_1712_119,stimulus2AFC2_2IFC_2020_Mar_23_1712_120,False,1,2AFC2,2020_Mar_23_1712,2IFC,
2IFC,15,0,15,0,11,-1,w,r,o,0.30092060001334175,False,True,2,1,stimulus2AFC2_2IFC_2020_Mar_23_1712_121,stimulus2AFC2_2IFC_2020_Mar_23_1712_122,False,1,2AFC2,2020_Mar_23_1712,2IFC,
2IFC,16,0,16,0,11,-1,c,o,r,0.3023741000215523,False,True,2,2,stimulus2AFC2_2IFC_2020_Mar_23_1712_123,stimulus2AFC2_2IFC_2020_Mar_23_1712_124,False,1,2AFC2,2020_Mar_23_1712,2IFC,
2IFC,17,0,17,0,11,-1,c,o,r,0.3508678000071086,False,True,2,2,stimulus2AFC2_2IFC_2020_Mar_23_1712_125,stimulus2AFC2_2IFC_2020_Mar_23_1712_126,False,1,2AFC2,2020_Mar_23_1712,2IFC,
2IFC,18,0,18,0,11,-1,c,o,r,0.1844647999969311,True,False,1,1,stimulus2AFC2_2IFC_2020_Mar_23_1712_127,stimulus2AFC2_2IFC_2020_Mar_23_1712_128,False,1,2AFC2,2020_Mar_23_1712,2IFC,
2IFC,19,0,19,0,11,-1,c,o,r,0.21805059997132048,True,False,1,1,stimulus2AFC2_2IFC_2020_Mar_23_1712_129,stimulus2AFC2_2IFC_2020_Mar_23_1712_130,False,1,2AFC2,2020_Mar_23_1712,2IFC,
2IFC,20,0,20,0,11,-1,w,r,o,0.38350789999822155,False,True,2,1,stimulus2AFC2_2IFC_2020_Mar_23_1712_131,stimulus2AFC2_2IFC_2020_Mar_23_1712_132,False,1,2AFC2,2020_Mar_23_1712,2IFC,
2IFC,21,0,21,0,11,-1,c,o,r,0.1663842999842018,True,False,1,1,stimulus2AFC2_2IFC_2020_Mar_23_1712_133,stimulus2AFC2_2IFC_2020_Mar_23_1712_134,False,1,2AFC2,2020_Mar_23_1712,2IFC,
2IFC,22,0,22,0,11,-1,c,o,r,0.18462680000811815,False,True,2,2,stimulus2AFC2_2IFC_2020_Mar_23_1712_135,stimulus2AFC2_2IFC_2020_Mar_23_1712_136,False,1,2AFC2,2020_Mar_23_1712,2IFC,
2IFC,23,0,23,0,11,-1,c,o,r,0.601372699951753,False,True,2,2,stimulus2AFC2_2IFC_2020_Mar_23_1712_137,stimulus2AFC2_2IFC_2020_Mar_23_1712_138,False,1,2AFC2,2020_Mar_23_1712,2IFC,
2IFC,24,0,24,0,11,-1,c,o,r,0.25119270000141114,False,True,2,2,stimulus2AFC2_2IFC_2020_Mar_23_1712_139,stimulus2AFC2_2IFC_2020_Mar_23_1712_140,False,1,2AFC2,2020_Mar_23_1712,2IFC,
2IFC,25,0,25,0,11,-1,c,o,r,0.419611299992539,False,True,2,2,stimulus2AFC2_2IFC_2020_Mar_23_1712_141,stimulus2AFC2_2IFC_2020_Mar_23_1712_142,False,1,2AFC2,2020_Mar_23_1712,2IFC,
2IFC,26,0,26,0,11,-1,c,o,r,0.40109769999980927,False,True,2,2,stimulus2AFC2_2IFC_2020_Mar_23_1712_143,stimulus2AFC2_2IFC_2020_Mar_23_1712_144,False,1,2AFC2,2020_Mar_23_1712,2IFC,
2IFC,27,0,27,0,11,-1,c,o,r,0.18413969996618107,True,False,1,1,stimulus2AFC2_2IFC_2020_Mar_23_1712_145,stimulus2AFC2_2IFC_2020_Mar_23_1712_146,False,1,2AFC2,2020_Mar_23_1712,2IFC,
2IFC,28,0,28,0,11,-1,c,o,r,0.25108800001908094,False,True,2,2,stimulus2AFC2_2IFC_2020_Mar_23_1712_147,stimulus2AFC2_2IFC_2020_Mar_23_1712_148,False,1,2AFC2,2020_Mar_23_1712,2IFC,
2IFC,29,0,29,0,11,-1,c,o,r,0.5179612999781966,False,True,2,2,stimulus2AFC2_2IFC_2020_Mar_23_1712_149,stimulus2AFC2_2IFC_2020_Mar_23_1712_150,False,1,2AFC2,2020_Mar_23_1712,2IFC,
2IFC,30,0,30,0,11,-1,c,o,r,0.3825154000078328,True,False,1,1,stimulus2AFC2_2IFC_2020_Mar_23_1712_151,stimulus2AFC2_2IFC_2020_Mar_23_1712_152,False,1,2AFC2,2020_Mar_23_1712,2IFC,
2IFC,31,0,31,0,11,-1,c,o,r,0.4516849999781698,False,True,2,2,stimulus2AFC2_2IFC_2020_Mar_23_1712_153,stimulus2AFC2_2IFC_2020_Mar_23_1712_154,False,1,2AFC2,2020_Mar_23_1712,2IFC,
2IFC,32,0,32,0,11,-1,c,o,r,0.5016416999860667,False,True,2,2,stimulus2AFC2_2IFC_2020_Mar_23_1712_155,stimulus2AFC2_2IFC_2020_Mar_23_1712_156,False,1,2AFC2,2020_Mar_23_1712,2IFC,
2IFC,33,0,33,0,11,-1,c,o,r,0.46790640003746375,False,True,2,2,stimulus2AFC2_2IFC_2020_Mar_23_1712_157,stimulus2AFC2_2IFC_2020_Mar_23_1712_158,False,1,2AFC2,2020_Mar_23_1712,2IFC,
2IFC,34,0,34,0,11,-1,c,o,r,0.48526119999587536,True,False,1,1,stimulus2AFC2_2IFC_2020_Mar_23_1712_159,stimulus2AFC2_2IFC_2020_Mar_23_1712_160,False,1,2AFC2,2020_Mar_23_1712,2IFC,
2IFC,35,0,35,0,11,-1,c,o,r,0.3175584000418894,False,True,2,2,stimulus2AFC2_2IFC_2020_Mar_23_1712_161,stimulus2AFC2_2IFC_2020_Mar_23_1712_162,False,1,2AFC2,2020_Mar_23_1712,2IFC,
2IFC,36,0,36,0,11,-1,c,o,r,0.18468559999018908,True,False,1,1,stimulus2AFC2_2IFC_2020_Mar_23_1712_163,stimulus2AFC2_2IFC_2020_Mar_23_1712_164,False,1,2AFC2,2020_Mar_23_1712,2IFC,
2IFC,37,0,37,0,11,-1,c,o,r,0.18454600003315136,True,False,1,1,stimulus2AFC2_2IFC_2020_Mar_23_1712_165,stimulus2AFC2_2IFC_2020_Mar_23_1712_166,False,1,2AFC2,2020_Mar_23_1712,2IFC,
2IFC,38,0,38,0,11,-1,c,o,r,0.21785989997442812,False,True,2,2,stimulus2AFC2_2IFC_2020_Mar_23_1712_167,stimulus2AFC2_2IFC_2020_Mar_23_1712_168,False,1,2AFC2,2020_Mar_23_1712,2IFC,
2IFC,39,0,39,0,11,-1,c,o,r,0.20110489998478442,True,False,1,1,stimulus2AFC2_2IFC_2020_Mar_23_1712_169,stimulus2AFC2_2IFC_2020_Mar_23_1712_170,False,1,2AFC2,2020_Mar_23_1712,2IFC,
2IFC,40,0,40,0,11,-1,c,o,r,0.1180179999792017,True,False,1,1,stimulus2AFC2_2IFC_2020_Mar_23_1712_171,stimulus2AFC2_2IFC_2020_Mar_23_1712_172,False,1,2AFC2,2020_Mar_23_1712,2IFC,
2IFC,41,0,41,0,11,-1,c,o,r,0.20130100002279505,True,False,1,1,stimulus2AFC2_2IFC_2020_Mar_23_1712_173,stimulus2AFC2_2IFC_2020_Mar_23_1712_174,False,1,2AFC2,2020_Mar_23_1712,2IFC,
2IFC,42,0,42,0,11,-1,c,o,r,0.20221469999523833,True,False,1,1,stimulus2AFC2_2IFC_2020_Mar_23_1712_175,stimulus2AFC2_2IFC_2020_Mar_23_1712_176,False,1,2AFC2,2020_Mar_23_1712,2IFC,
2IFC,43,0,43,0,11,-1,c,o,r,0.4010174999712035,False,True,2,2,stimulus2AFC2_2IFC_2020_Mar_23_1712_177,stimulus2AFC2_2IFC_2020_Mar_23_1712_178,False,1,2AFC2,2020_Mar_23_1712,2IFC,
2IFC,44,0,44,0,11,-1,w,r,o,0.6177711000200361,False,True,2,1,stimulus2AFC2_2IFC_2020_Mar_23_1712_179,stimulus2AFC2_2IFC_2020_Mar_23_1712_180,False,1,2AFC2,2020_Mar_23_1712,2IFC,
2IFC,0,0,0,0,0,-1,w,r,o,0.5011752999853343,True,False,1,2,stimulus2AFC2_2IFC_2020_Mar_23_1712_181,stimulus2AFC2_2IFC_2020_Mar_23_1712_182,False,1,2AFC2,2020_Mar_23_1712,2IFC,
2IFC,1,0,1,0,0,-1,c,o,r,0.533126899972558,True,False,1,1,stimulus2AFC2_2IFC_2020_Mar_23_1712_183,stimulus2AFC2_2IFC_2020_Mar_23_1712_184,False,1,2AFC2,2020_Mar_23_1712,2IFC,
2IFC,2,0,2,0,0,-1,w,r,o,0.3832573000108823,False,True,2,1,stimulus2AFC2_2IFC_2020_Mar_23_1712_185,stimulus2AFC2_2IFC_2020_Mar_23_1712_186,False,1,2AFC2,2020_Mar_23_1712,2IFC,
2IFC,3,0,3,0,0,-1,c,o,r,0.45092710002791137,False,True,2,2,stimulus2AFC2_2IFC_2020_Mar_23_1712_187,stimulus2AFC2_2IFC_2020_Mar_23_1712_188,False,1,2AFC2,2020_Mar_23_1712,2IFC,
2IFC,4,0,4,0,0,-1,c,o,r,0.4012489999877289,False,True,2,2,stimulus2AFC2_2IFC_2020_Mar_23_1712_189,stimulus2AFC2_2IFC_2020_Mar_23_1712_190,False,1,2AFC2,2020_Mar_23_1712,2IFC,
2IFC,5,0,5,0,0,-1,c,o,r,0.3846796000143513,False,True,2,2,stimulus2AFC2_2IFC_2020_Mar_23_1712_191,stimulus2AFC2_2IFC_2020_Mar_23_1712_192,False,1,2AFC2,2020_Mar_23_1712,2IFC,
2IFC,6,0,6,0,0,-1,c,o,r,0.41850889998022467,False,True,2,2,stimulus2AFC2_2IFC_2020_Mar_23_1712_193,stimulus2AFC2_2IFC_2020_Mar_23_1712_194,False,1,2AFC2,2020_Mar_23_1712,2IFC,
2IFC,7,0,7,0,0,-1,w,r,o,0.3854662000085227,False,True,2,1,stimulus2AFC2_2IFC_2020_Mar_23_1712_195,stimulus2AFC2_2IFC_2020_Mar_23_1712_196,False,1,2AFC2,2020_Mar_23_1712,2IFC,
2IFC,8,0,8,0,0,-1,c,o,r,0.3671036000014283,False,True,2,2,stimulus2AFC2_2IFC_2020_Mar_23_1712_197,stimulus2AFC2_2IFC_2020_Mar_23_1712_198,False,1,2AFC2,2020_Mar_23_1712,2IFC,
2IFC,9,0,9,0,0,-1,w,r,o,0.35230819997377694,False,True,2,1,stimulus2AFC2_2IFC_2020_Mar_23_1712_199,stimulus2AFC2_2IFC_2020_Mar_23_1712_200,False,1,2AFC2,2020_Mar_23_1712,2IFC,
2IFC,10,0,10,0,0,-1,w,r,o,0.2839840999804437,False,True,2,1,stimulus2AFC2_2IFC_2020_Mar_23_1712_201,stimulus2AFC2_2IFC_2020_Mar_23_1712_202,False,1,2AFC2,2020_Mar_23_1712,2IFC,
2IFC,11,0,11,0,0,-1,c,o,r,0.35299140005372465,False,True,2,2,stimulus2AFC2_2IFC_2020_Mar_23_1712_203,stimulus2AFC2_2IFC_2020_Mar_23_1712_204,False,1,2AFC2,2020_Mar_23_1712,2IFC,
2IFC,12,0,12,0,0,-1,w,r,o,0.35084710002411157,True,False,1,2,stimulus2AFC2_2IFC_2020_Mar_23_1712_205,stimulus2AFC2_2IFC_2020_Mar_23_1712_206,False,1,2AFC2,2020_Mar_23_1712,2IFC,
2IFC,13,0,13,0,0,-1,c,o,r,0.4825334000051953,True,False,1,1,stimulus2AFC2_2IFC_2020_Mar_23_1712_207,stimulus2AFC2_2IFC_2020_Mar_23_1712_208,False,1,2AFC2,2020_Mar_23_1712,2IFC,
2IFC,14,0,14,0,0,-1,w,r,o,0.4358926999848336,True,False,1,2,stimulus2AFC2_2IFC_2020_Mar_23_1712_209,stimulus2AFC2_2IFC_2020_Mar_23_1712_210,False,1,2AFC2,2020_Mar_23_1712,2IFC,
2IFC,15,0,15,0,0,-1,c,o,r,0.383647300011944,True,False,1,1,stimulus2AFC2_2IFC_2020_Mar_23_1712_211,stimulus2AFC2_2IFC_2020_Mar_23_1712_212,False,1,2AFC2,2020_Mar_23_1712,2IFC,
2IFC,16,0,16,0,0,-1,c,o,r,0.40088919998379424,False,True,2,2,stimulus2AFC2_2IFC_2020_Mar_23_1712_213,stimulus2AFC2_2IFC_2020_Mar_23_1712_214,False,1,2AFC2,2020_Mar_23_1712,2IFC,
2IFC,17,0,17,0,0,-1,c,o,r,0.3028092000167817,False,True,2,2,stimulus2AFC2_2IFC_2020_Mar_23_1712_215,stimulus2AFC2_2IFC_2020_Mar_23_1712_216,False,1,2AFC2,2020_Mar_23_1712,2IFC,
2IFC,18,0,18,0,0,-1,c,o,r,0.21724560001166537,False,True,2,2,stimulus2AFC2_2IFC_2020_Mar_23_1712_217,stimulus2AFC2_2IFC_2020_Mar_23_1712_218,False,1,2AFC2,2020_Mar_23_1712,2IFC,
2IFC,19,0,19,0,0,-1,c,o,r,0.4496872999588959,False,True,2,2,stimulus2AFC2_2IFC_2020_Mar_23_1712_219,stimulus2AFC2_2IFC_2020_Mar_23_1712_220,False,1,2AFC2,2020_Mar_23_1712,2IFC,
2IFC,20,0,20,0,0,-1,c,o,r,0.11795670003630221,False,True,2,2,stimulus2AFC2_2IFC_2020_Mar_23_1712_221,stimulus2AFC2_2IFC_2020_Mar_23_1712_222,False,1,2AFC2,2020_Mar_23_1712,2IFC,
2IFC,21,0,21,0,0,-1,c,o,r,0.1186578000197187,False,True,2,2,stimulus2AFC2_2IFC_2020_Mar_23_1712_223,stimulus2AFC2_2IFC_2020_Mar_23_1712_224,False,1,2AFC2,2020_Mar_23_1712,2IFC,
2IFC,22,0,22,0,0,-1,c,o,r,0.1337554999627173,False,True,2,2,stimulus2AFC2_2IFC_2020_Mar_23_1712_225,stimulus2AFC2_2IFC_2020_Mar_23_1712_226,False,1,2AFC2,2020_Mar_23_1712,2IFC,
2IFC,23,0,23,0,0,-1,c,o,r,0.18239600001834333,False,True,2,2,stimulus2AFC2_2IFC_2020_Mar_23_1712_227,stimulus2AFC2_2IFC_2020_Mar_23_1712_228,False,1,2AFC2,2020_Mar_23_1712,2IFC,
2IFC,24,0,24,0,0,-1,c,o,r,0.06763659999705851,False,True,2,2,stimulus2AFC2_2IFC_2020_Mar_23_1712_229,stimulus2AFC2_2IFC_2020_Mar_23_1712_230,False,1,2AFC2,2020_Mar_23_1712,2IFC,
2IFC,25,0,25,0,0,-1,w,r,o,0.08421169995563105,True,False,1,2,stimulus2AFC2_2IFC_2020_Mar_23_1712_231,stimulus2AFC2_2IFC_2020_Mar_23_1712_232,False,1,2AFC2,2020_Mar_23_1712,2IFC,
2IFC,26,0,26,0,0,-1,c,o,r,0.23505289998138323,False,True,2,2,stimulus2AFC2_2IFC_2020_Mar_23_1712_233,stimulus2AFC2_2IFC_2020_Mar_23_1712_234,False,1,2AFC2,2020_Mar_23_1712,2IFC,
2IFC,27,0,27,0,0,-1,w,r,o,0.6850919999997132,True,False,1,2,stimulus2AFC2_2IFC_2020_Mar_23_1712_235,stimulus2AFC2_2IFC_2020_Mar_23_1712_236,False,1,2AFC2,2020_Mar_23_1712,2IFC,
2IFC,28,0,28,0,0,-1,w,r,o,0.4015616999822669,True,False,1,2,stimulus2AFC2_2IFC_2020_Mar_23_1712_237,stimulus2AFC2_2IFC_2020_Mar_23_1712_238,False,1,2AFC2,2020_Mar_23_1712,2IFC,
2IFC,29,0,29,0,0,-1,w,r,o,0.6516606999794021,True,False,1,2,stimulus2AFC2_2IFC_2020_Mar_23_1712_239,stimulus2AFC2_2IFC_2020_Mar_23_1712_240,False,1,2AFC2,2020_Mar_23_1712,2IFC,
2IFC,30,0,30,0,0,-1,c,o,r,0.31883589999051765,False,True,2,2,stimulus2AFC2_2IFC_2020_Mar_23_1712_241,stimulus2AFC2_2IFC_2020_Mar_23_1712_242,False,1,2AFC2,2020_Mar_23_1712,2IFC,
2IFC,31,0,31,0,0,-1,c,o,r,0.21756830002414063,False,True,2,2,stimulus2AFC2_2IFC_2020_Mar_23_1712_243,stimulus2AFC2_2IFC_2020_Mar_23_1712_244,False,1,2AFC2,2020_Mar_23_1712,2IFC,
2IFC,32,0,32,0,0,-1,w,r,o,0.26766110002063215,True,False,1,2,stimulus2AFC2_2IFC_2020_Mar_23_1712_245,stimulus2AFC2_2IFC_2020_Mar_23_1712_246,False,1,2AFC2,2020_Mar_23_1712,2IFC,
2IFC,33,0,33,0,0,-1,w,r,o,0.5680833999649622,False,True,2,1,stimulus2AFC2_2IFC_2020_Mar_23_1712_247,stimulus2AFC2_2IFC_2020_Mar_23_1712_248,False,1,2AFC2,2020_Mar_23_1712,2IFC,
2IFC,34,0,34,0,0,-1,c,o,r,0.2511648000217974,False,True,2,2,stimulus2AFC2_2IFC_2020_Mar_23_1712_249,stimulus2AFC2_2IFC_2020_Mar_23_1712_250,False,1,2AFC2,2020_Mar_23_1712,2IFC,
2IFC,35,0,35,0,0,-1,c,o,r,0.23450840002624318,False,True,2,2,stimulus2AFC2_2IFC_2020_Mar_23_1712_251,stimulus2AFC2_2IFC_2020_Mar_23_1712_252,False,1,2AFC2,2020_Mar_23_1712,2IFC,
2IFC,36,0,36,0,0,-1,w,r,o,0.2678743999567814,True,False,1,2,stimulus2AFC2_2IFC_2020_Mar_23_1712_253,stimulus2AFC2_2IFC_2020_Mar_23_1712_254,False,1,2AFC2,2020_Mar_23_1712,2IFC,
2IFC,37,0,37,0,0,-1,c,o,r,0.2684865000192076,True,False,1,1,stimulus2AFC2_2IFC_2020_Mar_23_1712_255,stimulus2AFC2_2IFC_2020_Mar_23_1712_256,False,1,2AFC2,2020_Mar_23_1712,2IFC,
2IFC,38,0,38,0,0,-1,w,r,o,0.2183779000188224,True,False,1,2,stimulus2AFC2_2IFC_2020_Mar_23_1712_257,stimulus2AFC2_2IFC_2020_Mar_23_1712_258,False,1,2AFC2,2020_Mar_23_1712,2IFC,
2IFC,39,0,39,0,0,-1,w,r,o,0.21652300003916025,True,False,1,2,stimulus2AFC2_2IFC_2020_Mar_23_1712_259,stimulus2AFC2_2IFC_2020_Mar_23_1712_260,False,1,2AFC2,2020_Mar_23_1712,2IFC,
2IFC,40,0,40,0,0,-1,w,r,o,0.18783670000266284,True,False,1,2,stimulus2AFC2_2IFC_2020_Mar_23_1712_261,stimulus2AFC2_2IFC_2020_Mar_23_1712_262,False,1,2AFC2,2020_Mar_23_1712,2IFC,
2IFC,41,0,41,0,0,-1,w,r,o,0.5012361999833956,True,False,1,2,stimulus2AFC2_2IFC_2020_Mar_23_1712_263,stimulus2AFC2_2IFC_2020_Mar_23_1712_264,False,1,2AFC2,2020_Mar_23_1712,2IFC,
2IFC,42,0,42,0,0,-1,c,o,r,0.18617470003664494,False,True,2,2,stimulus2AFC2_2IFC_2020_Mar_23_1712_265,stimulus2AFC2_2IFC_2020_Mar_23_1712_266,False,1,2AFC2,2020_Mar_23_1712,2IFC,
2IFC,43,0,43,0,0,-1,c,o,r,0.2016064000199549,False,True,2,2,stimulus2AFC2_2IFC_2020_Mar_23_1712_267,stimulus2AFC2_2IFC_2020_Mar_23_1712_268,False,1,2AFC2,2020_Mar_23_1712,2IFC,
2IFC,44,0,44,0,0,-1,c,o,r,0.23241340002277866,False,True,2,2,stimulus2AFC2_2IFC_2020_Mar_23_1712_269,stimulus2AFC2_2IFC_2020_Mar_23_1712_270,False,1,2AFC2,2020_Mar_23_1712,2IFC,
2IFC,0,0,0,0,2,-1,c,o,r,0.4681687999982387,False,True,2,2,stimulus2AFC2_2IFC_2020_Mar_23_1712_271,stimulus2AFC2_2IFC_2020_Mar_23_1712_272,False,1,2AFC2,2020_Mar_23_1712,2IFC,
2IFC,1,0,1,0,2,-1,w,r,o,0.48467299999902025,True,False,1,2,stimulus2AFC2_2IFC_2020_Mar_23_1712_273,stimulus2AFC2_2IFC_2020_Mar_23_1712_274,False,1,2AFC2,2020_Mar_23_1712,2IFC,
2IFC,2,0,2,0,2,-1,c,o,r,0.35122439998667687,False,True,2,2,stimulus2AFC2_2IFC_2020_Mar_23_1712_275,stimulus2AFC2_2IFC_2020_Mar_23_1712_276,False,1,2AFC2,2020_Mar_23_1712,2IFC,
2IFC,3,0,3,0,2,-1,c,o,r,0.5002535000094213,True,False,1,1,stimulus2AFC2_2IFC_2020_Mar_23_1712_277,stimulus2AFC2_2IFC_2020_Mar_23_1712_278,False,1,2AFC2,2020_Mar_23_1712,2IFC,
2IFC,4,0,4,0,2,-1,c,o,r,0.36797379999188706,True,False,1,1,stimulus2AFC2_2IFC_2020_Mar_23_1712_279,stimulus2AFC2_2IFC_2020_Mar_23_1712_280,False,1,2AFC2,2020_Mar_23_1712,2IFC,
2IFC,5,0,5,0,2,-1,c,o,r,0.2513058000477031,True,False,1,1,stimulus2AFC2_2IFC_2020_Mar_23_1712_281,stimulus2AFC2_2IFC_2020_Mar_23_1712_282,False,1,2AFC2,2020_Mar_23_1712,2IFC,
2IFC,6,0,6,0,2,-1,w,r,o,0.46864839998306707,False,True,2,1,stimulus2AFC2_2IFC_2020_Mar_23_1712_283,stimulus2AFC2_2IFC_2020_Mar_23_1712_284,False,1,2AFC2,2020_Mar_23_1712,2IFC,
2IFC,7,0,7,0,2,-1,c,o,r,0.200373999949079,False,True,2,2,stimulus2AFC2_2IFC_2020_Mar_23_1712_285,stimulus2AFC2_2IFC_2020_Mar_23_1712_286,False,1,2AFC2,2020_Mar_23_1712,2IFC,
2IFC,8,0,8,0,2,-1,c,o,r,0.3513379999785684,False,True,2,2,stimulus2AFC2_2IFC_2020_Mar_23_1712_287,stimulus2AFC2_2IFC_2020_Mar_23_1712_288,False,1,2AFC2,2020_Mar_23_1712,2IFC,
2IFC,9,0,9,0,2,-1,w,r,o,0.3846272000228055,False,True,2,1,stimulus2AFC2_2IFC_2020_Mar_23_1712_289,stimulus2AFC2_2IFC_2020_Mar_23_1712_290,False,1,2AFC2,2020_Mar_23_1712,2IFC,
2IFC,10,0,10,0,2,-1,c,o,r,0.335421200026758,False,True,2,2,stimulus2AFC2_2IFC_2020_Mar_23_1712_291,stimulus2AFC2_2IFC_2020_Mar_23_1712_292,False,1,2AFC2,2020_Mar_23_1712,2IFC,
2IFC,11,0,11,0,2,-1,c,o,r,0.40126240003155544,False,True,2,2,stimulus2AFC2_2IFC_2020_Mar_23_1712_293,stimulus2AFC2_2IFC_2020_Mar_23_1712_294,False,1,2AFC2,2020_Mar_23_1712,2IFC,
2IFC,12,0,12,0,2,-1,c,o,r,0.46766959998058155,False,True,2,2,stimulus2AFC2_2IFC_2020_Mar_23_1712_295,stimulus2AFC2_2IFC_2020_Mar_23_1712_296,False,1,2AFC2,2020_Mar_23_1712,2IFC,
2IFC,13,0,13,0,2,-1,w,r,o,0.3005080000148155,True,False,1,2,stimulus2AFC2_2IFC_2020_Mar_23_1712_297,stimulus2AFC2_2IFC_2020_Mar_23_1712_298,False,1,2AFC2,2020_Mar_23_1712,2IFC,
2IFC,14,0,14,0,2,-1,c,o,r,0.2845033999765292,True,False,1,1,stimulus2AFC2_2IFC_2020_Mar_23_1712_299,stimulus2AFC2_2IFC_2020_Mar_23_1712_300,False,1,2AFC2,2020_Mar_23_1712,2IFC,
2IFC,15,0,15,0,2,-1,c,o,r,0.43589439999777824,False,True,2,2,stimulus2AFC2_2IFC_2020_Mar_23_1712_301,stimulus2AFC2_2IFC_2020_Mar_23_1712_302,False,1,2AFC2,2020_Mar_23_1712,2IFC,
2IFC,16,0,16,0,2,-1,c,o,r,0.4677869000006467,False,True,2,2,stimulus2AFC2_2IFC_2020_Mar_23_1712_303,stimulus2AFC2_2IFC_2020_Mar_23_1712_304,False,1,2AFC2,2020_Mar_23_1712,2IFC,
2IFC,17,0,17,0,2,-1,c,o,r,0.5178437999566086,False,True,2,2,stimulus2AFC2_2IFC_2020_Mar_23_1712_305,stimulus2AFC2_2IFC_2020_Mar_23_1712_306,False,1,2AFC2,2020_Mar_23_1712,2IFC,
2IFC,18,0,18,0,2,-1,c,o,r,0.21708699996815994,False,True,2,2,stimulus2AFC2_2IFC_2020_Mar_23_1712_307,stimulus2AFC2_2IFC_2020_Mar_23_1712_308,False,1,2AFC2,2020_Mar_23_1712,2IFC,
2IFC,19,0,19,0,2,-1,w,r,o,0.21783769998000935,True,False,1,2,stimulus2AFC2_2IFC_2020_Mar_23_1712_309,stimulus2AFC2_2IFC_2020_Mar_23_1712_310,False,1,2AFC2,2020_Mar_23_1712,2IFC,
2IFC,20,0,20,0,2,-1,w,r,o,0.401544600026682,False,True,2,1,stimulus2AFC2_2IFC_2020_Mar_23_1712_311,stimulus2AFC2_2IFC_2020_Mar_23_1712_312,False,1,2AFC2,2020_Mar_23_1712,2IFC,
2IFC,21,0,21,0,2,-1,w,r,o,0.2009906999883242,True,False,1,2,stimulus2AFC2_2IFC_2020_Mar_23_1712_313,stimulus2AFC2_2IFC_2020_Mar_23_1712_314,False,1,2AFC2,2020_Mar_23_1712,2IFC,
2IFC,22,0,22,0,2,-1,c,o,r,0.25083690002793446,True,False,1,1,stimulus2AFC2_2IFC_2020_Mar_23_1712_315,stimulus2AFC2_2IFC_2020_Mar_23_1712_316,False,1,2AFC2,2020_Mar_23_1712,2IFC,
2IFC,23,0,23,0,2,-1,c,o,r,0.3503867000108585,False,True,2,2,stimulus2AFC2_2IFC_2020_Mar_23_1712_317,stimulus2AFC2_2IFC_2020_Mar_23_1712_318,False,1,2AFC2,2020_Mar_23_1712,2IFC,
2IFC,24,0,24,0,2,-1,w,r,o,0.6348341000266373,False,True,2,1,stimulus2AFC2_2IFC_2020_Mar_23_1712_319,stimulus2AFC2_2IFC_2020_Mar_23_1712_320,False,1,2AFC2,2020_Mar_23_1712,2IFC,
2IFC,25,0,25,0,2,-1,c,o,r,0.650466899969615,True,False,1,1,stimulus2AFC2_2IFC_2020_Mar_23_1712_321,stimulus2AFC2_2IFC_2020_Mar_23_1712_322,False,1,2AFC2,2020_Mar_23_1712,2IFC,
2IFC,26,0,26,0,2,-1,c,o,r,0.5357526000007056,False,True,2,2,stimulus2AFC2_2IFC_2020_Mar_23_1712_323,stimulus2AFC2_2IFC_2020_Mar_23_1712_324,False,1,2AFC2,2020_Mar_23_1712,2IFC,
2IFC,27,0,27,0,2,-1,w,r,o,0.3849286999902688,True,False,1,2,stimulus2AFC2_2IFC_2020_Mar_23_1712_325,stimulus2AFC2_2IFC_2020_Mar_23_1712_326,False,1,2AFC2,2020_Mar_23_1712,2IFC,
2IFC,28,0,28,0,2,-1,w,r,o,0.299153900006786,False,True,2,1,stimulus2AFC2_2IFC_2020_Mar_23_1712_327,stimulus2AFC2_2IFC_2020_Mar_23_1712_328,False,1,2AFC2,2020_Mar_23_1712,2IFC,
2IFC,29,0,29,0,2,-1,w,r,o,0.269187800004147,True,False,1,2,stimulus2AFC2_2IFC_2020_Mar_23_1712_329,stimulus2AFC2_2IFC_2020_Mar_23_1712_330,False,1,2AFC2,2020_Mar_23_1712,2IFC,
2IFC,30,0,30,0,2,-1,w,r,o,0.35029440000653267,True,False,1,2,stimulus2AFC2_2IFC_2020_Mar_23_1712_331,stimulus2AFC2_2IFC_2020_Mar_23_1712_332,False,1,2AFC2,2020_Mar_23_1712,2IFC,
2IFC,31,0,31,0,2,-1,c,o,r,0.4513787000323646,False,True,2,2,stimulus2AFC2_2IFC_2020_Mar_23_1712_333,stimulus2AFC2_2IFC_2020_Mar_23_1712_334,False,1,2AFC2,2020_Mar_23_1712,2IFC,
2IFC,32,0,32,0,2,-1,w,r,o,0.5854181000031531,True,False,1,2,stimulus2AFC2_2IFC_2020_Mar_23_1712_335,stimulus2AFC2_2IFC_2020_Mar_23_1712_336,False,1,2AFC2,2020_Mar_23_1712,2IFC,
2IFC,33,0,33,0,2,-1,w,r,o,0.33377460000338033,False,True,2,1,stimulus2AFC2_2IFC_2020_Mar_23_1712_337,stimulus2AFC2_2IFC_2020_Mar_23_1712_338,False,1,2AFC2,2020_Mar_23_1712,2IFC,
2IFC,34,0,34,0,2,-1,c,o,r,0.600441700022202,True,False,1,1,stimulus2AFC2_2IFC_2020_Mar_23_1712_339,stimulus2AFC2_2IFC_2020_Mar_23_1712_340,False,1,2AFC2,2020_Mar_23_1712,2IFC,
2IFC,35,0,35,0,2,-1,c,o,r,0.48505849996581674,True,False,1,1,stimulus2AFC2_2IFC_2020_Mar_23_1712_341,stimulus2AFC2_2IFC_2020_Mar_23_1712_342,False,1,2AFC2,2020_Mar_23_1712,2IFC,
2IFC,36,0,36,0,2,-1,c,o,r,0.45139990001916885,True,False,1,1,stimulus2AFC2_2IFC_2020_Mar_23_1712_343,stimulus2AFC2_2IFC_2020_Mar_23_1712_344,False,1,2AFC2,2020_Mar_23_1712,2IFC,
2IFC,37,0,37,0,2,-1,w,r,o,0.3848359999828972,True,False,1,2,stimulus2AFC2_2IFC_2020_Mar_23_1712_345,stimulus2AFC2_2IFC_2020_Mar_23_1712_346,False,1,2AFC2,2020_Mar_23_1712,2IFC,
2IFC,38,0,38,0,2,-1,c,o,r,0.41811209998559207,False,True,2,2,stimulus2AFC2_2IFC_2020_Mar_23_1712_347,stimulus2AFC2_2IFC_2020_Mar_23_1712_348,False,1,2AFC2,2020_Mar_23_1712,2IFC,
2IFC,39,0,39,0,2,-1,c,o,r,0.5018159999744967,True,False,1,1,stimulus2AFC2_2IFC_2020_Mar_23_1712_349,stimulus2AFC2_2IFC_2020_Mar_23_1712_350,False,1,2AFC2,2020_Mar_23_1712,2IFC,
2IFC,40,0,40,0,2,-1,c,o,r,0.48466649994952604,False,True,2,2,stimulus2AFC2_2IFC_2020_Mar_23_1712_351,stimulus2AFC2_2IFC_2020_Mar_23_1712_352,False,1,2AFC2,2020_Mar_23_1712,2IFC,
2IFC,41,0,41,0,2,-1,c,o,r,0.7324355999589898,False,True,2,2,stimulus2AFC2_2IFC_2020_Mar_23_1712_353,stimulus2AFC2_2IFC_2020_Mar_23_1712_354,False,1,2AFC2,2020_Mar_23_1712,2IFC,
2IFC,42,0,42,0,2,-1,w,r,o,0.5688453000038862,False,True,2,1,stimulus2AFC2_2IFC_2020_Mar_23_1712_355,stimulus2AFC2_2IFC_2020_Mar_23_1712_356,False,1,2AFC2,2020_Mar_23_1712,2IFC,
2IFC,43,0,43,0,2,-1,c,o,r,0.41872449999209493,False,True,2,2,stimulus2AFC2_2IFC_2020_Mar_23_1712_357,stimulus2AFC2_2IFC_2020_Mar_23_1712_358,False,1,2AFC2,2020_Mar_23_1712,2IFC,
2IFC,44,0,44,0,2,-1,w,r,o,0.4346044999547303,False,True,2,1,stimulus2AFC2_2IFC_2020_Mar_23_1712_359,stimulus2AFC2_2IFC_2020_Mar_23_1712_360,False,1,2AFC2,2020_Mar_23_1712,2IFC,
2IFC,0,0,0,0,10,-1,c,o,r,0.6005893000401556,True,False,1,1,stimulus2AFC2_2IFC_2020_Mar_23_1712_361,stimulus2AFC2_2IFC_2020_Mar_23_1712_362,False,1,2AFC2,2020_Mar_23_1712,2IFC,
2IFC,1,0,1,0,10,-1,c,o,r,0.4513408000348136,False,True,2,2,stimulus2AFC2_2IFC_2020_Mar_23_1712_363,stimulus2AFC2_2IFC_2020_Mar_23_1712_364,False,1,2AFC2,2020_Mar_23_1712,2IFC,
2IFC,2,0,2,0,10,-1,c,o,r,0.33510969998314977,False,True,2,2,stimulus2AFC2_2IFC_2020_Mar_23_1712_365,stimulus2AFC2_2IFC_2020_Mar_23_1712_366,False,1,2AFC2,2020_Mar_23_1712,2IFC,
2IFC,3,0,3,0,10,-1,c,o,r,0.4016848999890499,False,True,2,2,stimulus2AFC2_2IFC_2020_Mar_23_1712_367,stimulus2AFC2_2IFC_2020_Mar_23_1712_368,False,1,2AFC2,2020_Mar_23_1712,2IFC,
2IFC,4,0,4,0,10,-1,c,o,r,0.38588089996483177,False,True,2,2,stimulus2AFC2_2IFC_2020_Mar_23_1712_369,stimulus2AFC2_2IFC_2020_Mar_23_1712_370,False,1,2AFC2,2020_Mar_23_1712,2IFC,
2IFC,5,0,5,0,10,-1,c,o,r,0.5162585000507534,False,True,2,2,stimulus2AFC2_2IFC_2020_Mar_23_1712_371,stimulus2AFC2_2IFC_2020_Mar_23_1712_372,False,1,2AFC2,2020_Mar_23_1712,2IFC,
2IFC,6,0,6,0,10,-1,c,o,r,0.1831053999485448,True,False,1,1,stimulus2AFC2_2IFC_2020_Mar_23_1712_373,stimulus2AFC2_2IFC_2020_Mar_23_1712_374,False,1,2AFC2,2020_Mar_23_1712,2IFC,
2IFC,7,0,7,0,10,-1,c,o,r,0.18493980000494048,True,False,1,1,stimulus2AFC2_2IFC_2020_Mar_23_1712_375,stimulus2AFC2_2IFC_2020_Mar_23_1712_376,False,1,2AFC2,2020_Mar_23_1712,2IFC,
2IFC,8,0,8,0,10,-1,c,o,r,0.21766719996230677,False,True,2,2,stimulus2AFC2_2IFC_2020_Mar_23_1712_377,stimulus2AFC2_2IFC_2020_Mar_23_1712_378,False,1,2AFC2,2020_Mar_23_1712,2IFC,
2IFC,9,0,9,0,10,-1,c,o,r,0.26687549997586757,True,False,1,1,stimulus2AFC2_2IFC_2020_Mar_23_1712_379,stimulus2AFC2_2IFC_2020_Mar_23_1712_380,False,1,2AFC2,2020_Mar_23_1712,2IFC,
2IFC,10,0,10,0,10,-1,c,o,r,0.3005249999696389,False,True,2,2,stimulus2AFC2_2IFC_2020_Mar_23_1712_381,stimulus2AFC2_2IFC_2020_Mar_23_1712_382,False,1,2AFC2,2020_Mar_23_1712,2IFC,
2IFC,11,0,11,0,10,-1,c,o,r,0.3496889999951236,False,True,2,2,stimulus2AFC2_2IFC_2020_Mar_23_1712_383,stimulus2AFC2_2IFC_2020_Mar_23_1712_384,False,1,2AFC2,2020_Mar_23_1712,2IFC,
2IFC,12,0,12,0,10,-1,c,o,r,0.3497596000088379,False,True,2,2,stimulus2AFC2_2IFC_2020_Mar_23_1712_385,stimulus2AFC2_2IFC_2020_Mar_23_1712_386,False,1,2AFC2,2020_Mar_23_1712,2IFC,
2IFC,13,0,13,0,10,-1,c,o,r,0.25058690004516393,True,False,1,1,stimulus2AFC2_2IFC_2020_Mar_23_1712_387,stimulus2AFC2_2IFC_2020_Mar_23_1712_388,False,1,2AFC2,2020_Mar_23_1712,2IFC,
2IFC,14,0,14,0,10,-1,c,o,r,0.3509736999985762,True,False,1,1,stimulus2AFC2_2IFC_2020_Mar_23_1712_389,stimulus2AFC2_2IFC_2020_Mar_23_1712_390,False,1,2AFC2,2020_Mar_23_1712,2IFC,
2IFC,15,0,15,0,10,-1,c,o,r,0.33455620001768693,True,False,1,1,stimulus2AFC2_2IFC_2020_Mar_23_1712_391,stimulus2AFC2_2IFC_2020_Mar_23_1712_392,False,1,2AFC2,2020_Mar_23_1712,2IFC,
2IFC,16,0,16,0,10,-1,c,o,r,0.2504653999931179,True,False,1,1,stimulus2AFC2_2IFC_2020_Mar_23_1712_393,stimulus2AFC2_2IFC_2020_Mar_23_1712_394,False,1,2AFC2,2020_Mar_23_1712,2IFC,
2IFC,17,0,17,0,10,-1,c,o,r,0.2506755000213161,False,True,2,2,stimulus2AFC2_2IFC_2020_Mar_23_1712_395,stimulus2AFC2_2IFC_2020_Mar_23_1712_396,False,1,2AFC2,2020_Mar_23_1712,2IFC,
2IFC,18,0,18,0,10,-1,c,o,r,0.18426509998971596,False,True,2,2,stimulus2AFC2_2IFC_2020_Mar_23_1712_397,stimulus2AFC2_2IFC_2020_Mar_23_1712_398,False,1,2AFC2,2020_Mar_23_1712,2IFC,
2IFC,19,0,19,0,10,-1,c,o,r,0.18366900004912168,True,False,1,1,stimulus2AFC2_2IFC_2020_Mar_23_1712_399,stimulus2AFC2_2IFC_2020_Mar_23_1712_400,False,1,2AFC2,2020_Mar_23_1712,2IFC,
2IFC,20,0,20,0,10,-1,w,r,o,0.3348052999936044,False,True,2,1,stimulus2AFC2_2IFC_2020_Mar_23_1712_401,stimulus2AFC2_2IFC_2020_Mar_23_1712_402,False,1,2AFC2,2020_Mar_23_1712,2IFC,
2IFC,21,0,21,0,10,-1,c,o,r,0.31818460003705695,False,True,2,2,stimulus2AFC2_2IFC_2020_Mar_23_1712_403,stimulus2AFC2_2IFC_2020_Mar_23_1712_404,False,1,2AFC2,2020_Mar_23_1712,2IFC,
2IFC,22,0,22,0,10,-1,c,o,r,0.41773190000094473,True,False,1,1,stimulus2AFC2_2IFC_2020_Mar_23_1712_405,stimulus2AFC2_2IFC_2020_Mar_23_1712_406,False,1,2AFC2,2020_Mar_23_1712,2IFC,
2IFC,23,0,23,0,10,-1,c,o,r,0.36832990002585575,False,True,2,2,stimulus2AFC2_2IFC_2020_Mar_23_1712_407,stimulus2AFC2_2IFC_2020_Mar_23_1712_408,False,1,2AFC2,2020_Mar_23_1712,2IFC,
2IFC,24,0,24,0,10,-1,c,o,r,0.31880559999262914,False,True,2,2,stimulus2AFC2_2IFC_2020_Mar_23_1712_409,stimulus2AFC2_2IFC_2020_Mar_23_1712_410,False,1,2AFC2,2020_Mar_23_1712,2IFC,
2IFC,25,0,25,0,10,-1,c,o,r,0.1998054999858141,True,False,1,1,stimulus2AFC2_2IFC_2020_Mar_23_1712_411,stimulus2AFC2_2IFC_2020_Mar_23_1712_412,False,1,2AFC2,2020_Mar_23_1712,2IFC,
2IFC,26,0,26,0,10,-1,c,o,r,0.2700228999601677,False,True,2,2,stimulus2AFC2_2IFC_2020_Mar_23_1712_413,stimulus2AFC2_2IFC_2020_Mar_23_1712_414,False,1,2AFC2,2020_Mar_23_1712,2IFC,
2IFC,27,0,27,0,10,-1,c,o,r,0.418012699985411,False,True,2,2,stimulus2AFC2_2IFC_2020_Mar_23_1712_415,stimulus2AFC2_2IFC_2020_Mar_23_1712_416,False,1,2AFC2,2020_Mar_23_1712,2IFC,
2IFC,28,0,28,0,10,-1,c,o,r,0.20233070000540465,True,False,1,1,stimulus2AFC2_2IFC_2020_Mar_23_1712_417,stimulus2AFC2_2IFC_2020_Mar_23_1712_418,False,1,2AFC2,2020_Mar_23_1712,2IFC,
2IFC,29,0,29,0,10,-1,c,o,r,0.6170599000179209,False,True,2,2,stimulus2AFC2_2IFC_2020_Mar_23_1712_419,stimulus2AFC2_2IFC_2020_Mar_23_1712_420,False,1,2AFC2,2020_Mar_23_1712,2IFC,
2IFC,30,0,30,0,10,-1,w,r,o,0.5343589000403881,False,True,2,1,stimulus2AFC2_2IFC_2020_Mar_23_1712_421,stimulus2AFC2_2IFC_2020_Mar_23_1712_422,False,1,2AFC2,2020_Mar_23_1712,2IFC,
2IFC,31,0,31,0,10,-1,c,o,r,0.21735290001379326,True,False,1,1,stimulus2AFC2_2IFC_2020_Mar_23_1712_423,stimulus2AFC2_2IFC_2020_Mar_23_1712_424,False,1,2AFC2,2020_Mar_23_1712,2IFC,
2IFC,32,0,32,0,10,-1,c,o,r,0.3352209000149742,False,True,2,2,stimulus2AFC2_2IFC_2020_Mar_23_1712_425,stimulus2AFC2_2IFC_2020_Mar_23_1712_426,False,1,2AFC2,2020_Mar_23_1712,2IFC,
2IFC,33,0,33,0,10,-1,c,o,r,0.1673387000337243,True,False,1,1,stimulus2AFC2_2IFC_2020_Mar_23_1712_427,stimulus2AFC2_2IFC_2020_Mar_23_1712_428,False,1,2AFC2,2020_Mar_23_1712,2IFC,
2IFC,34,0,34,0,10,-1,c,o,r,0.217376799962949,True,False,1,1,stimulus2AFC2_2IFC_2020_Mar_23_1712_429,stimulus2AFC2_2IFC_2020_Mar_23_1712_430,False,1,2AFC2,2020_Mar_23_1712,2IFC,
2IFC,35,0,35,0,10,-1,c,o,r,0.2835795999853872,False,True,2,2,stimulus2AFC2_2IFC_2020_Mar_23_1712_431,stimulus2AFC2_2IFC_2020_Mar_23_1712_432,False,1,2AFC2,2020_Mar_23_1712,2IFC,
2IFC,36,0,36,0,10,-1,c,o,r,0.19817590003367513,True,False,1,1,stimulus2AFC2_2IFC_2020_Mar_23_1712_433,stimulus2AFC2_2IFC_2020_Mar_23_1712_434,False,1,2AFC2,2020_Mar_23_1712,2IFC,
2IFC,37,0,37,0,10,-1,c,o,r,0.2011472000158392,True,False,1,1,stimulus2AFC2_2IFC_2020_Mar_23_1712_435,stimulus2AFC2_2IFC_2020_Mar_23_1712_436,False,1,2AFC2,2020_Mar_23_1712,2IFC,
2IFC,38,0,38,0,10,-1,c,o,r,0.16813289996935055,True,False,1,1,stimulus2AFC2_2IFC_2020_Mar_23_1712_437,stimulus2AFC2_2IFC_2020_Mar_23_1712_438,False,1,2AFC2,2020_Mar_23_1712,2IFC,
2IFC,39,0,39,0,10,-1,c,o,r,0.2185126999975182,True,False,1,1,stimulus2AFC2_2IFC_2020_Mar_23_1712_439,stimulus2AFC2_2IFC_2020_Mar_23_1712_440,False,1,2AFC2,2020_Mar_23_1712,2IFC,
2IFC,40,0,40,0,10,-1,w,r,o,0.23473770002601668,False,True,2,1,stimulus2AFC2_2IFC_2020_Mar_23_1712_441,stimulus2AFC2_2IFC_2020_Mar_23_1712_442,False,1,2AFC2,2020_Mar_23_1712,2IFC,
2IFC,41,0,41,0,10,-1,c,o,r,0.2159016999648884,True,False,1,1,stimulus2AFC2_2IFC_2020_Mar_23_1712_443,stimulus2AFC2_2IFC_2020_Mar_23_1712_444,False,1,2AFC2,2020_Mar_23_1712,2IFC,
2IFC,42,0,42,0,10,-1,c,o,r,0.4348838999867439,True,False,1,1,stimulus2AFC2_2IFC_2020_Mar_23_1712_445,stimulus2AFC2_2IFC_2020_Mar_23_1712_446,False,1,2AFC2,2020_Mar_23_1712,2IFC,
2IFC,43,0,43,0,10,-1,c,o,r,0.3359610000043176,False,True,2,2,stimulus2AFC2_2IFC_2020_Mar_23_1712_447,stimulus2AFC2_2IFC_2020_Mar_23_1712_448,False,1,2AFC2,2020_Mar_23_1712,2IFC,
2IFC,44,0,44,0,10,-1,c,o,r,0.4189028000109829,False,True,2,2,stimulus2AFC2_2IFC_2020_Mar_23_1712_449,stimulus2AFC2_2IFC_2020_Mar_23_1712_450,False,1,2AFC2,2020_Mar_23_1712,2IFC,
2IFC,0,0,0,0,8,-1,c,o,r,0.4849520999705419,True,False,1,1,stimulus2AFC2_2IFC_2020_Mar_23_1712_451,stimulus2AFC2_2IFC_2020_Mar_23_1712_452,False,1,2AFC2,2020_Mar_23_1712,2IFC,
2IFC,1,0,1,0,8,-1,c,o,r,0.284720900002867,True,False,1,1,stimulus2AFC2_2IFC_2020_Mar_23_1712_453,stimulus2AFC2_2IFC_2020_Mar_23_1712_454,False,1,2AFC2,2020_Mar_23_1712,2IFC,
2IFC,2,0,2,0,8,-1,c,o,r,0.21741370001109317,True,False,1,1,stimulus2AFC2_2IFC_2020_Mar_23_1712_455,stimulus2AFC2_2IFC_2020_Mar_23_1712_456,False,1,2AFC2,2020_Mar_23_1712,2IFC,
2IFC,3,0,3,0,8,-1,c,o,r,0.0828044000081718,True,False,1,1,stimulus2AFC2_2IFC_2020_Mar_23_1712_457,stimulus2AFC2_2IFC_2020_Mar_23_1712_458,False,1,2AFC2,2020_Mar_23_1712,2IFC,
2IFC,4,0,4,0,8,-1,c,o,r,0.3340324999880977,False,True,2,2,stimulus2AFC2_2IFC_2020_Mar_23_1712_459,stimulus2AFC2_2IFC_2020_Mar_23_1712_460,False,1,2AFC2,2020_Mar_23_1712,2IFC,
2IFC,5,0,5,0,8,-1,c,o,r,0.4180382000049576,False,True,2,2,stimulus2AFC2_2IFC_2020_Mar_23_1712_461,stimulus2AFC2_2IFC_2020_Mar_23_1712_462,False,1,2AFC2,2020_Mar_23_1712,2IFC,
2IFC,6,0,6,0,8,-1,c,o,r,0.2672345000319183,False,True,2,2,stimulus2AFC2_2IFC_2020_Mar_23_1712_463,stimulus2AFC2_2IFC_2020_Mar_23_1712_464,False,1,2AFC2,2020_Mar_23_1712,2IFC,
2IFC,7,0,7,0,8,-1,c,o,r,0.2008854000014253,True,False,1,1,stimulus2AFC2_2IFC_2020_Mar_23_1712_465,stimulus2AFC2_2IFC_2020_Mar_23_1712_466,False,1,2AFC2,2020_Mar_23_1712,2IFC,
2IFC,8,0,8,0,8,-1,c,o,r,0.26720429997658357,False,True,2,2,stimulus2AFC2_2IFC_2020_Mar_23_1712_467,stimulus2AFC2_2IFC_2020_Mar_23_1712_468,False,1,2AFC2,2020_Mar_23_1712,2IFC,
2IFC,9,0,9,0,8,-1,w,r,o,0.3831394000444561,False,True,2,1,stimulus2AFC2_2IFC_2020_Mar_23_1712_469,stimulus2AFC2_2IFC_2020_Mar_23_1712_470,False,1,2AFC2,2020_Mar_23_1712,2IFC,
2IFC,10,0,10,0,8,-1,c,o,r,0.25011790002463385,True,False,1,1,stimulus2AFC2_2IFC_2020_Mar_23_1712_471,stimulus2AFC2_2IFC_2020_Mar_23_1712_472,False,1,2AFC2,2020_Mar_23_1712,2IFC,
2IFC,11,0,11,0,8,-1,c,o,r,0.30164540000259876,False,True,2,2,stimulus2AFC2_2IFC_2020_Mar_23_1712_473,stimulus2AFC2_2IFC_2020_Mar_23_1712_474,False,1,2AFC2,2020_Mar_23_1712,2IFC,
2IFC,12,0,12,0,8,-1,c,o,r,0.3000425999634899,True,False,1,1,stimulus2AFC2_2IFC_2020_Mar_23_1712_475,stimulus2AFC2_2IFC_2020_Mar_23_1712_476,False,1,2AFC2,2020_Mar_23_1712,2IFC,
2IFC,13,0,13,0,8,-1,c,o,r,0.23457580001559108,True,False,1,1,stimulus2AFC2_2IFC_2020_Mar_23_1712_477,stimulus2AFC2_2IFC_2020_Mar_23_1712_478,False,1,2AFC2,2020_Mar_23_1712,2IFC,
2IFC,14,0,14,0,8,-1,c,o,r,0.2680141000309959,True,False,1,1,stimulus2AFC2_2IFC_2020_Mar_23_1712_479,stimulus2AFC2_2IFC_2020_Mar_23_1712_480,False,1,2AFC2,2020_Mar_23_1712,2IFC,
2IFC,15,0,15,0,8,-1,c,o,r,0.1844155000289902,False,True,2,2,stimulus2AFC2_2IFC_2020_Mar_23_1712_481,stimulus2AFC2_2IFC_2020_Mar_23_1712_482,False,1,2AFC2,2020_Mar_23_1712,2IFC,
2IFC,16,0,16,0,8,-1,c,o,r,0.3342729000141844,False,True,2,2,stimulus2AFC2_2IFC_2020_Mar_23_1712_483,stimulus2AFC2_2IFC_2020_Mar_23_1712_484,False,1,2AFC2,2020_Mar_23_1712,2IFC,
2IFC,17,0,17,0,8,-1,c,o,r,0.3851604000083171,False,True,2,2,stimulus2AFC2_2IFC_2020_Mar_23_1712_485,stimulus2AFC2_2IFC_2020_Mar_23_1712_486,False,1,2AFC2,2020_Mar_23_1712,2IFC,
2IFC,18,0,18,0,8,-1,c,o,r,0.3008124000043608,True,False,1,1,stimulus2AFC2_2IFC_2020_Mar_23_1712_487,stimulus2AFC2_2IFC_2020_Mar_23_1712_488,False,1,2AFC2,2020_Mar_23_1712,2IFC,
2IFC,19,0,19,0,8,-1,c,o,r,0.33489759999793023,True,False,1,1,stimulus2AFC2_2IFC_2020_Mar_23_1712_489,stimulus2AFC2_2IFC_2020_Mar_23_1712_490,False,1,2AFC2,2020_Mar_23_1712,2IFC,
2IFC,20,0,20,0,8,-1,c,o,r,0.3342683000373654,True,False,1,1,stimulus2AFC2_2IFC_2020_Mar_23_1712_491,stimulus2AFC2_2IFC_2020_Mar_23_1712_492,False,1,2AFC2,2020_Mar_23_1712,2IFC,
2IFC,21,0,21,0,8,-1,c,o,r,0.38452029996551573,True,False,1,1,stimulus2AFC2_2IFC_2020_Mar_23_1712_493,stimulus2AFC2_2IFC_2020_Mar_23_1712_494,False,1,2AFC2,2020_Mar_23_1712,2IFC,
2IFC,22,0,22,0,8,-1,c,o,r,0.26783999998588115,True,False,1,1,stimulus2AFC2_2IFC_2020_Mar_23_1712_495,stimulus2AFC2_2IFC_2020_Mar_23_1712_496,False,1,2AFC2,2020_Mar_23_1712,2IFC,
2IFC,23,0,23,0,8,-1,c,o,r,0.3312080000177957,True,False,1,1,stimulus2AFC2_2IFC_2020_Mar_23_1712_497,stimulus2AFC2_2IFC_2020_Mar_23_1712_498,False,1,2AFC2,2020_Mar_23_1712,2IFC,
2IFC,24,0,24,0,8,-1,c,o,r,0.1678328999551013,False,True,2,2,stimulus2AFC2_2IFC_2020_Mar_23_1712_499,stimulus2AFC2_2IFC_2020_Mar_23_1712_500,False,1,2AFC2,2020_Mar_23_1712,2IFC,
2IFC,25,0,25,0,8,-1,c,o,r,0.21804609999526292,False,True,2,2,stimulus2AFC2_2IFC_2020_Mar_23_1712_501,stimulus2AFC2_2IFC_2020_Mar_23_1712_502,False,1,2AFC2,2020_Mar_23_1712,2IFC,
2IFC,26,0,26,0,8,-1,c,o,r,0.20209749997593462,True,False,1,1,stimulus2AFC2_2IFC_2020_Mar_23_1712_503,stimulus2AFC2_2IFC_2020_Mar_23_1712_504,False,1,2AFC2,2020_Mar_23_1712,2IFC,
2IFC,27,0,27,0,8,-1,c,o,r,0.2849304000264965,True,False,1,1,stimulus2AFC2_2IFC_2020_Mar_23_1712_505,stimulus2AFC2_2IFC_2020_Mar_23_1712_506,False,1,2AFC2,2020_Mar_23_1712,2IFC,
2IFC,28,0,28,0,8,-1,c,o,r,0.20104819996049628,False,True,2,2,stimulus2AFC2_2IFC_2020_Mar_23_1712_507,stimulus2AFC2_2IFC_2020_Mar_23_1712_508,False,1,2AFC2,2020_Mar_23_1712,2IFC,
2IFC,29,0,29,0,8,-1,c,o,r,0.2514359999913722,False,True,2,2,stimulus2AFC2_2IFC_2020_Mar_23_1712_509,stimulus2AFC2_2IFC_2020_Mar_23_1712_510,False,1,2AFC2,2020_Mar_23_1712,2IFC,
2IFC,30,0,30,0,8,-1,c,o,r,0.1682274999911897,True,False,1,1,stimulus2AFC2_2IFC_2020_Mar_23_1712_511,stimulus2AFC2_2IFC_2020_Mar_23_1712_512,False,1,2AFC2,2020_Mar_23_1712,2IFC,
2IFC,31,0,31,0,8,-1,c,o,r,0.30074939999030903,False,True,2,2,stimulus2AFC2_2IFC_2020_Mar_23_1712_513,stimulus2AFC2_2IFC_2020_Mar_23_1712_514,False,1,2AFC2,2020_Mar_23_1712,2IFC,
2IFC,32,0,32,0,8,-1,c,o,r,0.13473420002264902,True,False,1,1,stimulus2AFC2_2IFC_2020_Mar_23_1712_515,stimulus2AFC2_2IFC_2020_Mar_23_1712_516,False,1,2AFC2,2020_Mar_23_1712,2IFC,
2IFC,33,0,33,0,8,-1,c,o,r,0.3516753999865614,True,False,1,1,stimulus2AFC2_2IFC_2020_Mar_23_1712_517,stimulus2AFC2_2IFC_2020_Mar_23_1712_518,False,1,2AFC2,2020_Mar_23_1712,2IFC,
2IFC,34,0,34,0,8,-1,c,o,r,0.23401099996408448,True,False,1,1,stimulus2AFC2_2IFC_2020_Mar_23_1712_519,stimulus2AFC2_2IFC_2020_Mar_23_1712_520,False,1,2AFC2,2020_Mar_23_1712,2IFC,
2IFC,35,0,35,0,8,-1,c,o,r,0.2526116999797523,True,False,1,1,stimulus2AFC2_2IFC_2020_Mar_23_1712_521,stimulus2AFC2_2IFC_2020_Mar_23_1712_522,False,1,2AFC2,2020_Mar_23_1712,2IFC,
2IFC,36,0,36,0,8,-1,c,o,r,0.13494939997326583,False,True,2,2,stimulus2AFC2_2IFC_2020_Mar_23_1712_523,stimulus2AFC2_2IFC_2020_Mar_23_1712_524,False,1,2AFC2,2020_Mar_23_1712,2IFC,
2IFC,37,0,37,0,8,-1,n,o, ,-1,False,True,2,-1,stimulus2AFC2_2IFC_2020_Mar_23_1712_525,stimulus2AFC2_2IFC_2020_Mar_23_1712_526,False,1,2AFC2,2020_Mar_23_1712,2IFC,
2IFC,38,0,38,0,8,-1,c,o,r,0.16766470001311973,True,False,1,1,stimulus2AFC2_2IFC_2020_Mar_23_1712_527,stimulus2AFC2_2IFC_2020_Mar_23_1712_528,False,1,2AFC2,2020_Mar_23_1712,2IFC,
2IFC,39,0,39,0,8,-1,c,o,r,0.21638389996951446,False,True,2,2,stimulus2AFC2_2IFC_2020_Mar_23_1712_529,stimulus2AFC2_2IFC_2020_Mar_23_1712_530,False,1,2AFC2,2020_Mar_23_1712,2IFC,
2IFC,40,0,40,0,8,-1,c,o,r,0.4018126999726519,False,True,2,2,stimulus2AFC2_2IFC_2020_Mar_23_1712_531,stimulus2AFC2_2IFC_2020_Mar_23_1712_532,False,1,2AFC2,2020_Mar_23_1712,2IFC,
2IFC,41,0,41,0,8,-1,c,o,r,0.26735749997897074,False,True,2,2,stimulus2AFC2_2IFC_2020_Mar_23_1712_533,stimulus2AFC2_2IFC_2020_Mar_23_1712_534,False,1,2AFC2,2020_Mar_23_1712,2IFC,
2IFC,42,0,42,0,8,-1,c,o,r,0.3525373000302352,False,True,2,2,stimulus2AFC2_2IFC_2020_Mar_23_1712_535,stimulus2AFC2_2IFC_2020_Mar_23_1712_536,False,1,2AFC2,2020_Mar_23_1712,2IFC,
2IFC,43,0,43,0,8,-1,w,r,o,0.3351321999798529,True,False,1,2,stimulus2AFC2_2IFC_2020_Mar_23_1712_537,stimulus2AFC2_2IFC_2020_Mar_23_1712_538,False,1,2AFC2,2020_Mar_23_1712,2IFC,
2IFC,44,0,44,0,8,-1,c,o,r,0.34866620000684634,True,False,1,1,stimulus2AFC2_2IFC_2020_Mar_23_1712_539,stimulus2AFC2_2IFC_2020_Mar_23_1712_540,False,1,2AFC2,2020_Mar_23_1712,2IFC,
2IFC,0,0,0,0,4,-1,c,o,r,0.5675598999951035,True,False,1,1,stimulus2AFC2_2IFC_2020_Mar_23_1712_541,stimulus2AFC2_2IFC_2020_Mar_23_1712_542,False,1,2AFC2,2020_Mar_23_1712,2IFC,
2IFC,1,0,1,0,4,-1,c,o,r,0.4175995000405237,True,False,1,1,stimulus2AFC2_2IFC_2020_Mar_23_1712_543,stimulus2AFC2_2IFC_2020_Mar_23_1712_544,False,1,2AFC2,2020_Mar_23_1712,2IFC,
2IFC,2,0,2,0,4,-1,c,o,r,0.16747270000632852,True,False,1,1,stimulus2AFC2_2IFC_2020_Mar_23_1712_545,stimulus2AFC2_2IFC_2020_Mar_23_1712_546,False,1,2AFC2,2020_Mar_23_1712,2IFC,
2IFC,3,0,3,0,4,-1,w,r,o,0.23371689999476075,False,True,2,1,stimulus2AFC2_2IFC_2020_Mar_23_1712_547,stimulus2AFC2_2IFC_2020_Mar_23_1712_548,False,1,2AFC2,2020_Mar_23_1712,2IFC,
2IFC,4,0,4,0,4,-1,w,r,o,0.28427750000264496,True,False,1,2,stimulus2AFC2_2IFC_2020_Mar_23_1712_549,stimulus2AFC2_2IFC_2020_Mar_23_1712_550,False,1,2AFC2,2020_Mar_23_1712,2IFC,
2IFC,5,0,5,0,4,-1,w,r,o,0.45175989996641874,True,False,1,2,stimulus2AFC2_2IFC_2020_Mar_23_1712_551,stimulus2AFC2_2IFC_2020_Mar_23_1712_552,False,1,2AFC2,2020_Mar_23_1712,2IFC,
2IFC,6,0,6,0,4,-1,c,o,r,0.21614500001305714,True,False,1,1,stimulus2AFC2_2IFC_2020_Mar_23_1712_553,stimulus2AFC2_2IFC_2020_Mar_23_1712_554,False,1,2AFC2,2020_Mar_23_1712,2IFC,
2IFC,7,0,7,0,4,-1,w,r,o,0.4175489000044763,True,False,1,2,stimulus2AFC2_2IFC_2020_Mar_23_1712_555,stimulus2AFC2_2IFC_2020_Mar_23_1712_556,False,1,2AFC2,2020_Mar_23_1712,2IFC,
2IFC,8,0,8,0,4,-1,c,o,r,0.1828778000199236,True,False,1,1,stimulus2AFC2_2IFC_2020_Mar_23_1712_557,stimulus2AFC2_2IFC_2020_Mar_23_1712_558,False,1,2AFC2,2020_Mar_23_1712,2IFC,
2IFC,9,0,9,0,4,-1,c,o,r,0.350048299995251,True,False,1,1,stimulus2AFC2_2IFC_2020_Mar_23_1712_559,stimulus2AFC2_2IFC_2020_Mar_23_1712_560,False,1,2AFC2,2020_Mar_23_1712,2IFC,
2IFC,10,0,10,0,4,-1,c,o,r,0.40186959999846295,False,True,2,2,stimulus2AFC2_2IFC_2020_Mar_23_1712_561,stimulus2AFC2_2IFC_2020_Mar_23_1712_562,False,1,2AFC2,2020_Mar_23_1712,2IFC,
2IFC,11,0,11,0,4,-1,c,o,r,0.4180073000025004,True,False,1,1,stimulus2AFC2_2IFC_2020_Mar_23_1712_563,stimulus2AFC2_2IFC_2020_Mar_23_1712_564,False,1,2AFC2,2020_Mar_23_1712,2IFC,
2IFC,12,0,12,0,4,-1,c,o,r,0.40170089999446645,False,True,2,2,stimulus2AFC2_2IFC_2020_Mar_23_1712_565,stimulus2AFC2_2IFC_2020_Mar_23_1712_566,False,1,2AFC2,2020_Mar_23_1712,2IFC,
2IFC,13,0,13,0,4,-1,w,r,o,0.35045440000249073,False,True,2,1,stimulus2AFC2_2IFC_2020_Mar_23_1712_567,stimulus2AFC2_2IFC_2020_Mar_23_1712_568,False,1,2AFC2,2020_Mar_23_1712,2IFC,
2IFC,14,0,14,0,4,-1,c,o,r,0.28511359996628016,True,False,1,1,stimulus2AFC2_2IFC_2020_Mar_23_1712_569,stimulus2AFC2_2IFC_2020_Mar_23_1712_570,False,1,2AFC2,2020_Mar_23_1712,2IFC,
2IFC,15,0,15,0,4,-1,c,o,r,0.5011726999655366,False,True,2,2,stimulus2AFC2_2IFC_2020_Mar_23_1712_571,stimulus2AFC2_2IFC_2020_Mar_23_1712_572,False,1,2AFC2,2020_Mar_23_1712,2IFC,
2IFC,16,0,16,0,4,-1,w,r,o,0.30049430002691224,True,False,1,2,stimulus2AFC2_2IFC_2020_Mar_23_1712_573,stimulus2AFC2_2IFC_2020_Mar_23_1712_574,False,1,2AFC2,2020_Mar_23_1712,2IFC,
2IFC,17,0,17,0,4,-1,w,r,o,0.46729469997808337,False,True,2,1,stimulus2AFC2_2IFC_2020_Mar_23_1712_575,stimulus2AFC2_2IFC_2020_Mar_23_1712_576,False,1,2AFC2,2020_Mar_23_1712,2IFC,
2IFC,18,0,18,0,4,-1,c,o,r,0.20355139998719096,True,False,1,1,stimulus2AFC2_2IFC_2020_Mar_23_1712_577,stimulus2AFC2_2IFC_2020_Mar_23_1712_578,False,1,2AFC2,2020_Mar_23_1712,2IFC,
2IFC,19,0,19,0,4,-1,w,r,o,0.45148359995801,True,False,1,2,stimulus2AFC2_2IFC_2020_Mar_23_1712_579,stimulus2AFC2_2IFC_2020_Mar_23_1712_580,False,1,2AFC2,2020_Mar_23_1712,2IFC,
2IFC,20,0,20,0,4,-1,c,o,r,0.41836970002623275,True,False,1,1,stimulus2AFC2_2IFC_2020_Mar_23_1712_581,stimulus2AFC2_2IFC_2020_Mar_23_1712_582,False,1,2AFC2,2020_Mar_23_1712,2IFC,
2IFC,21,0,21,0,4,-1,c,o,r,0.6845981999649666,False,True,2,2,stimulus2AFC2_2IFC_2020_Mar_23_1712_583,stimulus2AFC2_2IFC_2020_Mar_23_1712_584,False,1,2AFC2,2020_Mar_23_1712,2IFC,
2IFC,22,0,22,0,4,-1,c,o,r,0.36670840001897886,True,False,1,1,stimulus2AFC2_2IFC_2020_Mar_23_1712_585,stimulus2AFC2_2IFC_2020_Mar_23_1712_586,False,1,2AFC2,2020_Mar_23_1712,2IFC,
2IFC,23,0,23,0,4,-1,w,r,o,0.35133209999185055,False,True,2,1,stimulus2AFC2_2IFC_2020_Mar_23_1712_587,stimulus2AFC2_2IFC_2020_Mar_23_1712_588,False,1,2AFC2,2020_Mar_23_1712,2IFC,
2IFC,24,0,24,0,4,-1,c,o,r,0.40165420004632324,True,False,1,1,stimulus2AFC2_2IFC_2020_Mar_23_1712_589,stimulus2AFC2_2IFC_2020_Mar_23_1712_590,False,1,2AFC2,2020_Mar_23_1712,2IFC,
2IFC,25,0,25,0,4,-1,c,o,r,0.3510566999902949,True,False,1,1,stimulus2AFC2_2IFC_2020_Mar_23_1712_591,stimulus2AFC2_2IFC_2020_Mar_23_1712_592,False,1,2AFC2,2020_Mar_23_1712,2IFC,
2IFC,26,0,26,0,4,-1,c,o,r,0.3161710000131279,True,False,1,1,stimulus2AFC2_2IFC_2020_Mar_23_1712_593,stimulus2AFC2_2IFC_2020_Mar_23_1712_594,False,1,2AFC2,2020_Mar_23_1712,2IFC,
2IFC,27,0,27,0,4,-1,c,o,r,0.2845485000289045,False,True,2,2,stimulus2AFC2_2IFC_2020_Mar_23_1712_595,stimulus2AFC2_2IFC_2020_Mar_23_1712_596,False,1,2AFC2,2020_Mar_23_1712,2IFC,
2IFC,28,0,28,0,4,-1,w,r,o,0.45116759999655187,False,True,2,1,stimulus2AFC2_2IFC_2020_Mar_23_1712_597,stimulus2AFC2_2IFC_2020_Mar_23_1712_598,False,1,2AFC2,2020_Mar_23_1712,2IFC,
2IFC,29,0,29,0,4,-1,c,o,r,0.30239250004524365,False,True,2,2,stimulus2AFC2_2IFC_2020_Mar_23_1712_599,stimulus2AFC2_2IFC_2020_Mar_23_1712_600,False,1,2AFC2,2020_Mar_23_1712,2IFC,
2IFC,30,0,30,0,4,-1,c,o,r,0.28493690001778305,True,False,1,1,stimulus2AFC2_2IFC_2020_Mar_23_1712_601,stimulus2AFC2_2IFC_2020_Mar_23_1712_602,False,1,2AFC2,2020_Mar_23_1712,2IFC,
2IFC,31,0,31,0,4,-1,c,o,r,0.45073530002264306,False,True,2,2,stimulus2AFC2_2IFC_2020_Mar_23_1712_603,stimulus2AFC2_2IFC_2020_Mar_23_1712_604,False,1,2AFC2,2020_Mar_23_1712,2IFC,
2IFC,32,0,32,0,4,-1,c,o,r,0.499516699986998,False,True,2,2,stimulus2AFC2_2IFC_2020_Mar_23_1712_605,stimulus2AFC2_2IFC_2020_Mar_23_1712_606,False,1,2AFC2,2020_Mar_23_1712,2IFC,
2IFC,33,0,33,0,4,-1,w,r,o,0.2503380000125617,False,True,2,1,stimulus2AFC2_2IFC_2020_Mar_23_1712_607,stimulus2AFC2_2IFC_2020_Mar_23_1712_608,False,1,2AFC2,2020_Mar_23_1712,2IFC,
2IFC,34,0,34,0,4,-1,c,o,r,0.21794579998822883,True,False,1,1,stimulus2AFC2_2IFC_2020_Mar_23_1712_609,stimulus2AFC2_2IFC_2020_Mar_23_1712_610,False,1,2AFC2,2020_Mar_23_1712,2IFC,
2IFC,35,0,35,0,4,-1,c,o,r,0.3335369999986142,True,False,1,1,stimulus2AFC2_2IFC_2020_Mar_23_1712_611,stimulus2AFC2_2IFC_2020_Mar_23_1712_612,False,1,2AFC2,2020_Mar_23_1712,2IFC,
2IFC,36,0,36,0,4,-1,c,o,r,0.4182287000003271,False,True,2,2,stimulus2AFC2_2IFC_2020_Mar_23_1712_613,stimulus2AFC2_2IFC_2020_Mar_23_1712_614,False,1,2AFC2,2020_Mar_23_1712,2IFC,
2IFC,37,0,37,0,4,-1,c,o,r,0.31809030001750216,False,True,2,2,stimulus2AFC2_2IFC_2020_Mar_23_1712_615,stimulus2AFC2_2IFC_2020_Mar_23_1712_616,False,1,2AFC2,2020_Mar_23_1712,2IFC,
2IFC,38,0,38,0,4,-1,w,r,o,0.2681804000167176,True,False,1,2,stimulus2AFC2_2IFC_2020_Mar_23_1712_617,stimulus2AFC2_2IFC_2020_Mar_23_1712_618,False,1,2AFC2,2020_Mar_23_1712,2IFC,
2IFC,39,0,39,0,4,-1,w,r,o,0.18328070000279695,False,True,2,1,stimulus2AFC2_2IFC_2020_Mar_23_1712_619,stimulus2AFC2_2IFC_2020_Mar_23_1712_620,False,1,2AFC2,2020_Mar_23_1712,2IFC,
2IFC,40,0,40,0,4,-1,c,o,r,0.13436119997641072,True,False,1,1,stimulus2AFC2_2IFC_2020_Mar_23_1712_621,stimulus2AFC2_2IFC_2020_Mar_23_1712_622,False,1,2AFC2,2020_Mar_23_1712,2IFC,
2IFC,41,0,41,0,4,-1,c,o,r,0.3510402000392787,True,False,1,1,stimulus2AFC2_2IFC_2020_Mar_23_1712_623,stimulus2AFC2_2IFC_2020_Mar_23_1712_624,False,1,2AFC2,2020_Mar_23_1712,2IFC,
2IFC,42,0,42,0,4,-1,c,o,r,0.284265200025402,True,False,1,1,stimulus2AFC2_2IFC_2020_Mar_23_1712_625,stimulus2AFC2_2IFC_2020_Mar_23_1712_626,False,1,2AFC2,2020_Mar_23_1712,2IFC,
2IFC,43,0,43,0,4,-1,w,r,o,0.4182493999833241,True,False,1,2,stimulus2AFC2_2IFC_2020_Mar_23_1712_627,stimulus2AFC2_2IFC_2020_Mar_23_1712_628,False,1,2AFC2,2020_Mar_23_1712,2IFC,
2IFC,44,0,44,0,4,-1,c,o,r,0.1673032000544481,True,False,1,1,stimulus2AFC2_2IFC_2020_Mar_23_1712_629,stimulus2AFC2_2IFC_2020_Mar_23_1712_630,False,1,2AFC2,2020_Mar_23_1712,2IFC,
2IFC,0,0,0,0,6,-1,c,o,r,0.48463099997024983,True,False,1,1,stimulus2AFC2_2IFC_2020_Mar_23_1712_631,stimulus2AFC2_2IFC_2020_Mar_23_1712_632,False,1,2AFC2,2020_Mar_23_1712,2IFC,
2IFC,1,0,1,0,6,-1,c,o,r,0.417801600007806,False,True,2,2,stimulus2AFC2_2IFC_2020_Mar_23_1712_633,stimulus2AFC2_2IFC_2020_Mar_23_1712_634,False,1,2AFC2,2020_Mar_23_1712,2IFC,
2IFC,2,0,2,0,6,-1,c,o,r,0.3511675999616273,True,False,1,1,stimulus2AFC2_2IFC_2020_Mar_23_1712_635,stimulus2AFC2_2IFC_2020_Mar_23_1712_636,False,1,2AFC2,2020_Mar_23_1712,2IFC,
2IFC,3,0,3,0,6,-1,c,o,r,0.06814220000524074,True,False,1,1,stimulus2AFC2_2IFC_2020_Mar_23_1712_637,stimulus2AFC2_2IFC_2020_Mar_23_1712_638,False,1,2AFC2,2020_Mar_23_1712,2IFC,
2IFC,4,0,4,0,6,-1,c,o,r,0.40109790000133216,False,True,2,2,stimulus2AFC2_2IFC_2020_Mar_23_1712_639,stimulus2AFC2_2IFC_2020_Mar_23_1712_640,False,1,2AFC2,2020_Mar_23_1712,2IFC,
2IFC,5,0,5,0,6,-1,c,o,r,0.13432339997962117,True,False,1,1,stimulus2AFC2_2IFC_2020_Mar_23_1712_641,stimulus2AFC2_2IFC_2020_Mar_23_1712_642,False,1,2AFC2,2020_Mar_23_1712,2IFC,
2IFC,6,0,6,0,6,-1,c,o,r,0.3010667000198737,False,True,2,2,stimulus2AFC2_2IFC_2020_Mar_23_1712_643,stimulus2AFC2_2IFC_2020_Mar_23_1712_644,False,1,2AFC2,2020_Mar_23_1712,2IFC,
2IFC,7,0,7,0,6,-1,c,o,r,0.18219900003168732,True,False,1,1,stimulus2AFC2_2IFC_2020_Mar_23_1712_645,stimulus2AFC2_2IFC_2020_Mar_23_1712_646,False,1,2AFC2,2020_Mar_23_1712,2IFC,
2IFC,8,0,8,0,6,-1,c,o,r,0.3523668000125326,False,True,2,2,stimulus2AFC2_2IFC_2020_Mar_23_1712_647,stimulus2AFC2_2IFC_2020_Mar_23_1712_648,False,1,2AFC2,2020_Mar_23_1712,2IFC,
2IFC,9,0,9,0,6,-1,w,r,o,0.2849088000366464,False,True,2,1,stimulus2AFC2_2IFC_2020_Mar_23_1712_649,stimulus2AFC2_2IFC_2020_Mar_23_1712_650,False,1,2AFC2,2020_Mar_23_1712,2IFC,
2IFC,10,0,10,0,6,-1,c,o,r,0.6357385999872349,False,True,2,2,stimulus2AFC2_2IFC_2020_Mar_23_1712_651,stimulus2AFC2_2IFC_2020_Mar_23_1712_652,False,1,2AFC2,2020_Mar_23_1712,2IFC,
2IFC,11,0,11,0,6,-1,c,o,r,0.23496219998924062,True,False,1,1,stimulus2AFC2_2IFC_2020_Mar_23_1712_653,stimulus2AFC2_2IFC_2020_Mar_23_1712_654,False,1,2AFC2,2020_Mar_23_1712,2IFC,
2IFC,12,0,12,0,6,-1,c,o,r,0.24858040001709014,True,False,1,1,stimulus2AFC2_2IFC_2020_Mar_23_1712_655,stimulus2AFC2_2IFC_2020_Mar_23_1712_656,False,1,2AFC2,2020_Mar_23_1712,2IFC,
2IFC,13,0,13,0,6,-1,w,r,o,0.41746120003517717,False,True,2,1,stimulus2AFC2_2IFC_2020_Mar_23_1712_657,stimulus2AFC2_2IFC_2020_Mar_23_1712_658,False,1,2AFC2,2020_Mar_23_1712,2IFC,
2IFC,14,0,14,0,6,-1,c,o,r,0.4671855000196956,False,True,2,2,stimulus2AFC2_2IFC_2020_Mar_23_1712_659,stimulus2AFC2_2IFC_2020_Mar_23_1712_660,False,1,2AFC2,2020_Mar_23_1712,2IFC,
2IFC,15,0,15,0,6,-1,c,o,r,0.23421120003331453,True,False,1,1,stimulus2AFC2_2IFC_2020_Mar_23_1712_661,stimulus2AFC2_2IFC_2020_Mar_23_1712_662,False,1,2AFC2,2020_Mar_23_1712,2IFC,
2IFC,16,0,16,0,6,-1,c,o,r,0.23399939999217167,True,False,1,1,stimulus2AFC2_2IFC_2020_Mar_23_1712_663,stimulus2AFC2_2IFC_2020_Mar_23_1712_664,False,1,2AFC2,2020_Mar_23_1712,2IFC,
2IFC,17,0,17,0,6,-1,c,o,r,0.4516882000025362,True,False,1,1,stimulus2AFC2_2IFC_2020_Mar_23_1712_665,stimulus2AFC2_2IFC_2020_Mar_23_1712_666,False,1,2AFC2,2020_Mar_23_1712,2IFC,
2IFC,18,0,18,0,6,-1,c,o,r,0.40015920001314953,True,False,1,1,stimulus2AFC2_2IFC_2020_Mar_23_1712_667,stimulus2AFC2_2IFC_2020_Mar_23_1712_668,False,1,2AFC2,2020_Mar_23_1712,2IFC,
2IFC,19,0,19,0,6,-1,c,o,r,0.368330099969171,True,False,1,1,stimulus2AFC2_2IFC_2020_Mar_23_1712_669,stimulus2AFC2_2IFC_2020_Mar_23_1712_670,False,1,2AFC2,2020_Mar_23_1712,2IFC,
2IFC,20,0,20,0,6,-1,c,o,r,0.45168520003790036,False,True,2,2,stimulus2AFC2_2IFC_2020_Mar_23_1712_671,stimulus2AFC2_2IFC_2020_Mar_23_1712_672,False,1,2AFC2,2020_Mar_23_1712,2IFC,
2IFC,21,0,21,0,6,-1,c,o,r,0.18411520001245663,True,False,1,1,stimulus2AFC2_2IFC_2020_Mar_23_1712_673,stimulus2AFC2_2IFC_2020_Mar_23_1712_674,False,1,2AFC2,2020_Mar_23_1712,2IFC,
2IFC,22,0,22,0,6,-1,c,o,r,0.3678440999938175,False,True,2,2,stimulus2AFC2_2IFC_2020_Mar_23_1712_675,stimulus2AFC2_2IFC_2020_Mar_23_1712_676,False,1,2AFC2,2020_Mar_23_1712,2IFC,
2IFC,23,0,23,0,6,-1,w,r,o,0.20041889999993145,False,True,2,1,stimulus2AFC2_2IFC_2020_Mar_23_1712_677,stimulus2AFC2_2IFC_2020_Mar_23_1712_678,False,1,2AFC2,2020_Mar_23_1712,2IFC,
2IFC,24,0,24,0,6,-1,c,o,r,0.21757120004622266,False,True,2,2,stimulus2AFC2_2IFC_2020_Mar_23_1712_679,stimulus2AFC2_2IFC_2020_Mar_23_1712_680,False,1,2AFC2,2020_Mar_23_1712,2IFC,
2IFC,25,0,25,0,6,-1,w,r,o,0.25054640002781525,False,True,2,1,stimulus2AFC2_2IFC_2020_Mar_23_1712_681,stimulus2AFC2_2IFC_2020_Mar_23_1712_682,False,1,2AFC2,2020_Mar_23_1712,2IFC,
2IFC,26,0,26,0,6,-1,c,o,r,0.150808300008066,True,False,1,1,stimulus2AFC2_2IFC_2020_Mar_23_1712_683,stimulus2AFC2_2IFC_2020_Mar_23_1712_684,False,1,2AFC2,2020_Mar_23_1712,2IFC,
2IFC,27,0,27,0,6,-1,c,o,r,0.4503565999912098,True,False,1,1,stimulus2AFC2_2IFC_2020_Mar_23_1712_685,stimulus2AFC2_2IFC_2020_Mar_23_1712_686,False,1,2AFC2,2020_Mar_23_1712,2IFC,
2IFC,28,0,28,0,6,-1,c,o,r,0.33448580000549555,True,False,1,1,stimulus2AFC2_2IFC_2020_Mar_23_1712_687,stimulus2AFC2_2IFC_2020_Mar_23_1712_688,False,1,2AFC2,2020_Mar_23_1712,2IFC,
2IFC,29,0,29,0,6,-1,c,o,r,0.45146530005149543,False,True,2,2,stimulus2AFC2_2IFC_2020_Mar_23_1712_689,stimulus2AFC2_2IFC_2020_Mar_23_1712_690,False,1,2AFC2,2020_Mar_23_1712,2IFC,
2IFC,30,0,30,0,6,-1,c,o,r,0.28621589997783303,True,False,1,1,stimulus2AFC2_2IFC_2020_Mar_23_1712_691,stimulus2AFC2_2IFC_2020_Mar_23_1712_692,False,1,2AFC2,2020_Mar_23_1712,2IFC,
2IFC,31,0,31,0,6,-1,c,o,r,0.5344591999892145,False,True,2,2,stimulus2AFC2_2IFC_2020_Mar_23_1712_693,stimulus2AFC2_2IFC_2020_Mar_23_1712_694,False,1,2AFC2,2020_Mar_23_1712,2IFC,
2IFC,32,0,32,0,6,-1,c,o,r,0.4660495000425726,False,True,2,2,stimulus2AFC2_2IFC_2020_Mar_23_1712_695,stimulus2AFC2_2IFC_2020_Mar_23_1712_696,False,1,2AFC2,2020_Mar_23_1712,2IFC,
2IFC,33,0,33,0,6,-1,c,o,r,0.2667896999628283,True,False,1,1,stimulus2AFC2_2IFC_2020_Mar_23_1712_697,stimulus2AFC2_2IFC_2020_Mar_23_1712_698,False,1,2AFC2,2020_Mar_23_1712,2IFC,
2IFC,34,0,34,0,6,-1,c,o,r,0.43499749997863546,True,False,1,1,stimulus2AFC2_2IFC_2020_Mar_23_1712_699,stimulus2AFC2_2IFC_2020_Mar_23_1712_700,False,1,2AFC2,2020_Mar_23_1712,2IFC,
2IFC,35,0,35,0,6,-1,c,o,r,0.5009154999861494,True,False,1,1,stimulus2AFC2_2IFC_2020_Mar_23_1712_701,stimulus2AFC2_2IFC_2020_Mar_23_1712_702,False,1,2AFC2,2020_Mar_23_1712,2IFC,
2IFC,36,0,36,0,6,-1,c,o,r,0.250833900005091,False,True,2,2,stimulus2AFC2_2IFC_2020_Mar_23_1712_703,stimulus2AFC2_2IFC_2020_Mar_23_1712_704,False,1,2AFC2,2020_Mar_23_1712,2IFC,
2IFC,37,0,37,0,6,-1,c,o,r,0.18427190004149452,True,False,1,1,stimulus2AFC2_2IFC_2020_Mar_23_1712_705,stimulus2AFC2_2IFC_2020_Mar_23_1712_706,False,1,2AFC2,2020_Mar_23_1712,2IFC,
2IFC,38,0,38,0,6,-1,c,o,r,0.050795999995898455,True,False,1,1,stimulus2AFC2_2IFC_2020_Mar_23_1712_707,stimulus2AFC2_2IFC_2020_Mar_23_1712_708,False,1,2AFC2,2020_Mar_23_1712,2IFC,
2IFC,39,0,39,0,6,-1,c,o,r,0.4004115999559872,True,False,1,1,stimulus2AFC2_2IFC_2020_Mar_23_1712_709,stimulus2AFC2_2IFC_2020_Mar_23_1712_710,False,1,2AFC2,2020_Mar_23_1712,2IFC,
2IFC,40,0,40,0,6,-1,c,o,r,0.18479570001363754,False,True,2,2,stimulus2AFC2_2IFC_2020_Mar_23_1712_711,stimulus2AFC2_2IFC_2020_Mar_23_1712_712,False,1,2AFC2,2020_Mar_23_1712,2IFC,
2IFC,41,0,41,0,6,-1,c,o,r,0.16795690002618358,True,False,1,1,stimulus2AFC2_2IFC_2020_Mar_23_1712_713,stimulus2AFC2_2IFC_2020_Mar_23_1712_714,False,1,2AFC2,2020_Mar_23_1712,2IFC,
2IFC,42,0,42,0,6,-1,c,o,r,0.4189353999681771,True,False,1,1,stimulus2AFC2_2IFC_2020_Mar_23_1712_715,stimulus2AFC2_2IFC_2020_Mar_23_1712_716,False,1,2AFC2,2020_Mar_23_1712,2IFC,
2IFC,43,0,43,0,6,-1,c,o,r,0.435057999973651,False,True,2,2,stimulus2AFC2_2IFC_2020_Mar_23_1712_717,stimulus2AFC2_2IFC_2020_Mar_23_1712_718,False,1,2AFC2,2020_Mar_23_1712,2IFC,
2IFC,44,0,44,0,6,-1,c,o,r,0.18345150002278388,False,True,2,2,stimulus2AFC2_2IFC_2020_Mar_23_1712_719,stimulus2AFC2_2IFC_2020_Mar_23_1712_720,False,1,2AFC2,2020_Mar_23_1712,2IFC,
2IFC,0,0,0,0,1,-1,w,r,o,0.6683171999757178,False,True,2,1,stimulus2AFC2_2IFC_2020_Mar_23_1712_721,stimulus2AFC2_2IFC_2020_Mar_23_1712_722,False,1,2AFC2,2020_Mar_23_1712,2IFC,
2IFC,1,0,1,0,1,-1,c,o,r,0.43475559999933466,False,True,2,2,stimulus2AFC2_2IFC_2020_Mar_23_1712_723,stimulus2AFC2_2IFC_2020_Mar_23_1712_724,False,1,2AFC2,2020_Mar_23_1712,2IFC,
2IFC,2,0,2,0,1,-1,c,o,r,0.5840940999914892,True,False,1,1,stimulus2AFC2_2IFC_2020_Mar_23_1712_725,stimulus2AFC2_2IFC_2020_Mar_23_1712_726,False,1,2AFC2,2020_Mar_23_1712,2IFC,
2IFC,3,0,3,0,1,-1,w,r,o,0.35046169999986887,False,True,2,1,stimulus2AFC2_2IFC_2020_Mar_23_1712_727,stimulus2AFC2_2IFC_2020_Mar_23_1712_728,False,1,2AFC2,2020_Mar_23_1712,2IFC,
2IFC,4,0,4,0,1,-1,c,o,r,0.48493859998416156,True,False,1,1,stimulus2AFC2_2IFC_2020_Mar_23_1712_729,stimulus2AFC2_2IFC_2020_Mar_23_1712_730,False,1,2AFC2,2020_Mar_23_1712,2IFC,
2IFC,5,0,5,0,1,-1,w,r,o,0.4511517999926582,True,False,1,2,stimulus2AFC2_2IFC_2020_Mar_23_1712_731,stimulus2AFC2_2IFC_2020_Mar_23_1712_732,False,1,2AFC2,2020_Mar_23_1712,2IFC,
2IFC,6,0,6,0,1,-1,w,r,o,0.23164660000475124,False,True,2,1,stimulus2AFC2_2IFC_2020_Mar_23_1712_733,stimulus2AFC2_2IFC_2020_Mar_23_1712_734,False,1,2AFC2,2020_Mar_23_1712,2IFC,
2IFC,7,0,7,0,1,-1,c,o,r,0.5508777999784797,False,True,2,2,stimulus2AFC2_2IFC_2020_Mar_23_1712_735,stimulus2AFC2_2IFC_2020_Mar_23_1712_736,False,1,2AFC2,2020_Mar_23_1712,2IFC,
2IFC,8,0,8,0,1,-1,c,o,r,0.5508254999876954,True,False,1,1,stimulus2AFC2_2IFC_2020_Mar_23_1712_737,stimulus2AFC2_2IFC_2020_Mar_23_1712_738,False,1,2AFC2,2020_Mar_23_1712,2IFC,
2IFC,9,0,9,0,1,-1,c,o,r,0.4185579000040889,True,False,1,1,stimulus2AFC2_2IFC_2020_Mar_23_1712_739,stimulus2AFC2_2IFC_2020_Mar_23_1712_740,False,1,2AFC2,2020_Mar_23_1712,2IFC,
2IFC,10,0,10,0,1,-1,c,o,r,0.23406609997618943,True,False,1,1,stimulus2AFC2_2IFC_2020_Mar_23_1712_741,stimulus2AFC2_2IFC_2020_Mar_23_1712_742,False,1,2AFC2,2020_Mar_23_1712,2IFC,
2IFC,11,0,11,0,1,-1,c,o,r,0.6182570999953896,False,True,2,2,stimulus2AFC2_2IFC_2020_Mar_23_1712_743,stimulus2AFC2_2IFC_2020_Mar_23_1712_744,False,1,2AFC2,2020_Mar_23_1712,2IFC,
2IFC,12,0,12,0,1,-1,c,o,r,0.4513001999584958,True,False,1,1,stimulus2AFC2_2IFC_2020_Mar_23_1712_745,stimulus2AFC2_2IFC_2020_Mar_23_1712_746,False,1,2AFC2,2020_Mar_23_1712,2IFC,
2IFC,13,0,13,0,1,-1,c,o,r,0.5008219999726862,False,True,2,2,stimulus2AFC2_2IFC_2020_Mar_23_1712_747,stimulus2AFC2_2IFC_2020_Mar_23_1712_748,False,1,2AFC2,2020_Mar_23_1712,2IFC,
2IFC,14,0,14,0,1,-1,c,o,r,0.332555900036823,False,True,2,2,stimulus2AFC2_2IFC_2020_Mar_23_1712_749,stimulus2AFC2_2IFC_2020_Mar_23_1712_750,False,1,2AFC2,2020_Mar_23_1712,2IFC,
2IFC,15,0,15,0,1,-1,c,o,r,0.2348035000031814,False,True,2,2,stimulus2AFC2_2IFC_2020_Mar_23_1712_751,stimulus2AFC2_2IFC_2020_Mar_23_1712_752,False,1,2AFC2,2020_Mar_23_1712,2IFC,
2IFC,16,0,16,0,1,-1,c,o,r,0.2676614000229165,False,True,2,2,stimulus2AFC2_2IFC_2020_Mar_23_1712_753,stimulus2AFC2_2IFC_2020_Mar_23_1712_754,False,1,2AFC2,2020_Mar_23_1712,2IFC,
2IFC,17,0,17,0,1,-1,c,o,r,0.2841304000467062,False,True,2,2,stimulus2AFC2_2IFC_2020_Mar_23_1712_755,stimulus2AFC2_2IFC_2020_Mar_23_1712_756,False,1,2AFC2,2020_Mar_23_1712,2IFC,
2IFC,18,0,18,0,1,-1,w,r,o,0.5034548999974504,True,False,1,2,stimulus2AFC2_2IFC_2020_Mar_23_1712_757,stimulus2AFC2_2IFC_2020_Mar_23_1712_758,False,1,2AFC2,2020_Mar_23_1712,2IFC,
2IFC,19,0,19,0,1,-1,w,r,o,0.48504449997562915,False,True,2,1,stimulus2AFC2_2IFC_2020_Mar_23_1712_759,stimulus2AFC2_2IFC_2020_Mar_23_1712_760,False,1,2AFC2,2020_Mar_23_1712,2IFC,
2IFC,20,0,20,0,1,-1,w,r,o,0.44979730003979057,True,False,1,2,stimulus2AFC2_2IFC_2020_Mar_23_1712_761,stimulus2AFC2_2IFC_2020_Mar_23_1712_762,False,1,2AFC2,2020_Mar_23_1712,2IFC,
2IFC,21,0,21,0,1,-1,c,o,r,0.4012318000313826,False,True,2,2,stimulus2AFC2_2IFC_2020_Mar_23_1712_763,stimulus2AFC2_2IFC_2020_Mar_23_1712_764,False,1,2AFC2,2020_Mar_23_1712,2IFC,
2IFC,22,0,22,0,1,-1,w,r,o,0.4707168999593705,True,False,1,2,stimulus2AFC2_2IFC_2020_Mar_23_1712_765,stimulus2AFC2_2IFC_2020_Mar_23_1712_766,False,1,2AFC2,2020_Mar_23_1712,2IFC,
2IFC,23,0,23,0,1,-1,w,r,o,0.585031800030265,False,True,2,1,stimulus2AFC2_2IFC_2020_Mar_23_1712_767,stimulus2AFC2_2IFC_2020_Mar_23_1712_768,False,1,2AFC2,2020_Mar_23_1712,2IFC,
2IFC,24,0,24,0,1,-1,c,o,r,0.20019269996555522,True,False,1,1,stimulus2AFC2_2IFC_2020_Mar_23_1712_769,stimulus2AFC2_2IFC_2020_Mar_23_1712_770,False,1,2AFC2,2020_Mar_23_1712,2IFC,
2IFC,25,0,25,0,1,-1,c,o,r,0.6190725999767892,True,False,1,1,stimulus2AFC2_2IFC_2020_Mar_23_1712_771,stimulus2AFC2_2IFC_2020_Mar_23_1712_772,False,1,2AFC2,2020_Mar_23_1712,2IFC,
2IFC,26,0,26,0,1,-1,c,o,r,0.5540890999836847,False,True,2,2,stimulus2AFC2_2IFC_2020_Mar_23_1712_773,stimulus2AFC2_2IFC_2020_Mar_23_1712_774,False,1,2AFC2,2020_Mar_23_1712,2IFC,
2IFC,27,0,27,0,1,-1,c,o,r,0.4541861000470817,False,True,2,2,stimulus2AFC2_2IFC_2020_Mar_23_1712_775,stimulus2AFC2_2IFC_2020_Mar_23_1712_776,False,1,2AFC2,2020_Mar_23_1712,2IFC,
2IFC,28,0,28,0,1,-1,c,o,r,0.2339771999977529,True,False,1,1,stimulus2AFC2_2IFC_2020_Mar_23_1712_777,stimulus2AFC2_2IFC_2020_Mar_23_1712_778,False,1,2AFC2,2020_Mar_23_1712,2IFC,
2IFC,29,0,29,0,1,-1,c,o,r,0.19823669997276738,True,False,1,1,stimulus2AFC2_2IFC_2020_Mar_23_1712_779,stimulus2AFC2_2IFC_2020_Mar_23_1712_780,False,1,2AFC2,2020_Mar_23_1712,2IFC,
2IFC,30,0,30,0,1,-1,c,o,r,0.5517313999589533,False,True,2,2,stimulus2AFC2_2IFC_2020_Mar_23_1712_781,stimulus2AFC2_2IFC_2020_Mar_23_1712_782,False,1,2AFC2,2020_Mar_23_1712,2IFC,
2IFC,31,0,31,0,1,-1,c,o,r,0.5185720999725163,False,True,2,2,stimulus2AFC2_2IFC_2020_Mar_23_1712_783,stimulus2AFC2_2IFC_2020_Mar_23_1712_784,False,1,2AFC2,2020_Mar_23_1712,2IFC,
2IFC,32,0,32,0,1,-1,w,r,o,0.43371559999650344,True,False,1,2,stimulus2AFC2_2IFC_2020_Mar_23_1712_785,stimulus2AFC2_2IFC_2020_Mar_23_1712_786,False,1,2AFC2,2020_Mar_23_1712,2IFC,
2IFC,33,0,33,0,1,-1,c,o,r,0.11791650002123788,False,True,2,2,stimulus2AFC2_2IFC_2020_Mar_23_1712_787,stimulus2AFC2_2IFC_2020_Mar_23_1712_788,False,1,2AFC2,2020_Mar_23_1712,2IFC,
2IFC,34,0,34,0,1,-1,c,o,r,0.3680287000024691,False,True,2,2,stimulus2AFC2_2IFC_2020_Mar_23_1712_789,stimulus2AFC2_2IFC_2020_Mar_23_1712_790,False,1,2AFC2,2020_Mar_23_1712,2IFC,
2IFC,35,0,35,0,1,-1,w,r,o,0.6181481999810785,True,False,1,2,stimulus2AFC2_2IFC_2020_Mar_23_1712_791,stimulus2AFC2_2IFC_2020_Mar_23_1712_792,False,1,2AFC2,2020_Mar_23_1712,2IFC,
2IFC,36,0,36,0,1,-1,w,r,o,0.31809970003087074,False,True,2,1,stimulus2AFC2_2IFC_2020_Mar_23_1712_793,stimulus2AFC2_2IFC_2020_Mar_23_1712_794,False,1,2AFC2,2020_Mar_23_1712,2IFC,
2IFC,37,0,37,0,1,-1,w,r,o,0.2842321000061929,True,False,1,2,stimulus2AFC2_2IFC_2020_Mar_23_1712_795,stimulus2AFC2_2IFC_2020_Mar_23_1712_796,False,1,2AFC2,2020_Mar_23_1712,2IFC,
2IFC,38,0,38,0,1,-1,c,o,r,0.15069229999789968,False,True,2,2,stimulus2AFC2_2IFC_2020_Mar_23_1712_797,stimulus2AFC2_2IFC_2020_Mar_23_1712_798,False,1,2AFC2,2020_Mar_23_1712,2IFC,
2IFC,39,0,39,0,1,-1,c,o,r,0.3188676999998279,False,True,2,2,stimulus2AFC2_2IFC_2020_Mar_23_1712_799,stimulus2AFC2_2IFC_2020_Mar_23_1712_800,False,1,2AFC2,2020_Mar_23_1712,2IFC,
2IFC,40,0,40,0,1,-1,c,o,r,0.4673698000260629,True,False,1,1,stimulus2AFC2_2IFC_2020_Mar_23_1712_801,stimulus2AFC2_2IFC_2020_Mar_23_1712_802,False,1,2AFC2,2020_Mar_23_1712,2IFC,
2IFC,41,0,41,0,1,-1,w,r,o,0.7993354999925941,True,False,1,2,stimulus2AFC2_2IFC_2020_Mar_23_1712_803,stimulus2AFC2_2IFC_2020_Mar_23_1712_804,False,1,2AFC2,2020_Mar_23_1712,2IFC,
2IFC,42,0,42,0,1,-1,w,r,o,0.6854000000166707,False,True,2,1,stimulus2AFC2_2IFC_2020_Mar_23_1712_805,stimulus2AFC2_2IFC_2020_Mar_23_1712_806,False,1,2AFC2,2020_Mar_23_1712,2IFC,
2IFC,43,0,43,0,1,-1,c,o,r,0.6185566000058316,True,False,1,1,stimulus2AFC2_2IFC_2020_Mar_23_1712_807,stimulus2AFC2_2IFC_2020_Mar_23_1712_808,False,1,2AFC2,2020_Mar_23_1712,2IFC,
2IFC,44,0,44,0,1,-1,w,r,o,0.5180387000436895,True,False,1,2,stimulus2AFC2_2IFC_2020_Mar_23_1712_809,stimulus2AFC2_2IFC_2020_Mar_23_1712_810,False,1,2AFC2,2020_Mar_23_1712,2IFC,
2IFC,0,0,0,0,7,-1,n,o, ,-1,True,False,1,-1,stimulus2AFC2_2IFC_2020_Mar_23_1712_811,stimulus2AFC2_2IFC_2020_Mar_23_1712_812,False,1,2AFC2,2020_Mar_23_1712,2IFC,
2IFC,1,0,1,0,7,-1,c,o,r,0.4516620999784209,True,False,1,1,stimulus2AFC2_2IFC_2020_Mar_23_1712_813,stimulus2AFC2_2IFC_2020_Mar_23_1712_814,False,1,2AFC2,2020_Mar_23_1712,2IFC,
2IFC,2,0,2,0,7,-1,c,o,r,0.3840673000086099,True,False,1,1,stimulus2AFC2_2IFC_2020_Mar_23_1712_815,stimulus2AFC2_2IFC_2020_Mar_23_1712_816,False,1,2AFC2,2020_Mar_23_1712,2IFC,
2IFC,3,0,3,0,7,-1,c,o,r,0.1862171000102535,False,True,2,2,stimulus2AFC2_2IFC_2020_Mar_23_1712_817,stimulus2AFC2_2IFC_2020_Mar_23_1712_818,False,1,2AFC2,2020_Mar_23_1712,2IFC,
2IFC,4,0,4,0,7,-1,c,o,r,0.3344352000276558,True,False,1,1,stimulus2AFC2_2IFC_2020_Mar_23_1712_819,stimulus2AFC2_2IFC_2020_Mar_23_1712_820,False,1,2AFC2,2020_Mar_23_1712,2IFC,
2IFC,5,0,5,0,7,-1,c,o,r,0.15097469999454916,True,False,1,1,stimulus2AFC2_2IFC_2020_Mar_23_1712_821,stimulus2AFC2_2IFC_2020_Mar_23_1712_822,False,1,2AFC2,2020_Mar_23_1712,2IFC,
2IFC,6,0,6,0,7,-1,c,o,r,0.18380230001639575,True,False,1,1,stimulus2AFC2_2IFC_2020_Mar_23_1712_823,stimulus2AFC2_2IFC_2020_Mar_23_1712_824,False,1,2AFC2,2020_Mar_23_1712,2IFC,
2IFC,7,0,7,0,7,-1,w,r,o,0.4682674999930896,False,True,2,1,stimulus2AFC2_2IFC_2020_Mar_23_1712_825,stimulus2AFC2_2IFC_2020_Mar_23_1712_826,False,1,2AFC2,2020_Mar_23_1712,2IFC,
2IFC,8,0,8,0,7,-1,c,o,r,0.21814519999315962,True,False,1,1,stimulus2AFC2_2IFC_2020_Mar_23_1712_827,stimulus2AFC2_2IFC_2020_Mar_23_1712_828,False,1,2AFC2,2020_Mar_23_1712,2IFC,
2IFC,9,0,9,0,7,-1,c,o,r,0.3689804999739863,False,True,2,2,stimulus2AFC2_2IFC_2020_Mar_23_1712_829,stimulus2AFC2_2IFC_2020_Mar_23_1712_830,False,1,2AFC2,2020_Mar_23_1712,2IFC,
2IFC,10,0,10,0,7,-1,c,o,r,0.234153299999889,True,False,1,1,stimulus2AFC2_2IFC_2020_Mar_23_1712_831,stimulus2AFC2_2IFC_2020_Mar_23_1712_832,False,1,2AFC2,2020_Mar_23_1712,2IFC,
2IFC,11,0,11,0,7,-1,c,o,r,0.24988560000201687,False,True,2,2,stimulus2AFC2_2IFC_2020_Mar_23_1712_833,stimulus2AFC2_2IFC_2020_Mar_23_1712_834,False,1,2AFC2,2020_Mar_23_1712,2IFC,
2IFC,12,0,12,0,7,-1,c,o,r,0.1531603999901563,True,False,1,1,stimulus2AFC2_2IFC_2020_Mar_23_1712_835,stimulus2AFC2_2IFC_2020_Mar_23_1712_836,False,1,2AFC2,2020_Mar_23_1712,2IFC,
2IFC,13,0,13,0,7,-1,w,r,o,0.3668042999925092,False,True,2,1,stimulus2AFC2_2IFC_2020_Mar_23_1712_837,stimulus2AFC2_2IFC_2020_Mar_23_1712_838,False,1,2AFC2,2020_Mar_23_1712,2IFC,
2IFC,14,0,14,0,7,-1,c,o,r,0.2322534000268206,True,False,1,1,stimulus2AFC2_2IFC_2020_Mar_23_1712_839,stimulus2AFC2_2IFC_2020_Mar_23_1712_840,False,1,2AFC2,2020_Mar_23_1712,2IFC,
2IFC,15,0,15,0,7,-1,c,o,r,0.4183523000101559,True,False,1,1,stimulus2AFC2_2IFC_2020_Mar_23_1712_841,stimulus2AFC2_2IFC_2020_Mar_23_1712_842,False,1,2AFC2,2020_Mar_23_1712,2IFC,
2IFC,16,0,16,0,7,-1,c,o,r,0.267906499968376,True,False,1,1,stimulus2AFC2_2IFC_2020_Mar_23_1712_843,stimulus2AFC2_2IFC_2020_Mar_23_1712_844,False,1,2AFC2,2020_Mar_23_1712,2IFC,
2IFC,17,0,17,0,7,-1,c,o,r,0.6839807000360452,True,False,1,1,stimulus2AFC2_2IFC_2020_Mar_23_1712_845,stimulus2AFC2_2IFC_2020_Mar_23_1712_846,False,1,2AFC2,2020_Mar_23_1712,2IFC,
2IFC,18,0,18,0,7,-1,c,o,r,0.2180559000116773,True,False,1,1,stimulus2AFC2_2IFC_2020_Mar_23_1712_847,stimulus2AFC2_2IFC_2020_Mar_23_1712_848,False,1,2AFC2,2020_Mar_23_1712,2IFC,
2IFC,19,0,19,0,7,-1,c,o,r,0.3681347999954596,False,True,2,2,stimulus2AFC2_2IFC_2020_Mar_23_1712_849,stimulus2AFC2_2IFC_2020_Mar_23_1712_850,False,1,2AFC2,2020_Mar_23_1712,2IFC,
2IFC,20,0,20,0,7,-1,c,o,r,0.25044059997890145,True,False,1,1,stimulus2AFC2_2IFC_2020_Mar_23_1712_851,stimulus2AFC2_2IFC_2020_Mar_23_1712_852,False,1,2AFC2,2020_Mar_23_1712,2IFC,
2IFC,21,0,21,0,7,-1,c,o,r,0.26805259997490793,True,False,1,1,stimulus2AFC2_2IFC_2020_Mar_23_1712_853,stimulus2AFC2_2IFC_2020_Mar_23_1712_854,False,1,2AFC2,2020_Mar_23_1712,2IFC,
2IFC,22,0,22,0,7,-1,c,o,r,0.31812229997012764,True,False,1,1,stimulus2AFC2_2IFC_2020_Mar_23_1712_855,stimulus2AFC2_2IFC_2020_Mar_23_1712_856,False,1,2AFC2,2020_Mar_23_1712,2IFC,
2IFC,23,0,23,0,7,-1,w,r,o,0.3495988000067882,False,True,2,1,stimulus2AFC2_2IFC_2020_Mar_23_1712_857,stimulus2AFC2_2IFC_2020_Mar_23_1712_858,False,1,2AFC2,2020_Mar_23_1712,2IFC,
2IFC,24,0,24,0,7,-1,c,o,r,0.4177456999896094,False,True,2,2,stimulus2AFC2_2IFC_2020_Mar_23_1712_859,stimulus2AFC2_2IFC_2020_Mar_23_1712_860,False,1,2AFC2,2020_Mar_23_1712,2IFC,
2IFC,25,0,25,0,7,-1,c,o,r,0.18470930005423725,True,False,1,1,stimulus2AFC2_2IFC_2020_Mar_23_1712_861,stimulus2AFC2_2IFC_2020_Mar_23_1712_862,False,1,2AFC2,2020_Mar_23_1712,2IFC,
2IFC,26,0,26,0,7,-1,c,o,r,0.4179632000159472,False,True,2,2,stimulus2AFC2_2IFC_2020_Mar_23_1712_863,stimulus2AFC2_2IFC_2020_Mar_23_1712_864,False,1,2AFC2,2020_Mar_23_1712,2IFC,
2IFC,27,0,27,0,7,-1,c,o,r,0.434869599994272,False,True,2,2,stimulus2AFC2_2IFC_2020_Mar_23_1712_865,stimulus2AFC2_2IFC_2020_Mar_23_1712_866,False,1,2AFC2,2020_Mar_23_1712,2IFC,
2IFC,28,0,28,0,7,-1,c,o,r,0.5176857999758795,True,False,1,1,stimulus2AFC2_2IFC_2020_Mar_23_1712_867,stimulus2AFC2_2IFC_2020_Mar_23_1712_868,False,1,2AFC2,2020_Mar_23_1712,2IFC,
2IFC,29,0,29,0,7,-1,c,o,r,0.16875030001392588,False,True,2,2,stimulus2AFC2_2IFC_2020_Mar_23_1712_869,stimulus2AFC2_2IFC_2020_Mar_23_1712_870,False,1,2AFC2,2020_Mar_23_1712,2IFC,
2IFC,30,0,30,0,7,-1,c,o,r,0.1681222000042908,True,False,1,1,stimulus2AFC2_2IFC_2020_Mar_23_1712_871,stimulus2AFC2_2IFC_2020_Mar_23_1712_872,False,1,2AFC2,2020_Mar_23_1712,2IFC,
2IFC,31,0,31,0,7,-1,c,o,r,0.18482859997311607,True,False,1,1,stimulus2AFC2_2IFC_2020_Mar_23_1712_873,stimulus2AFC2_2IFC_2020_Mar_23_1712_874,False,1,2AFC2,2020_Mar_23_1712,2IFC,
2IFC,32,0,32,0,7,-1,c,o,r,0.20233110000845045,True,False,1,1,stimulus2AFC2_2IFC_2020_Mar_23_1712_875,stimulus2AFC2_2IFC_2020_Mar_23_1712_876,False,1,2AFC2,2020_Mar_23_1712,2IFC,
2IFC,33,0,33,0,7,-1,c,o,r,0.11828210001112893,True,False,1,1,stimulus2AFC2_2IFC_2020_Mar_23_1712_877,stimulus2AFC2_2IFC_2020_Mar_23_1712_878,False,1,2AFC2,2020_Mar_23_1712,2IFC,
2IFC,34,0,34,0,7,-1,c,o,r,0.251424300018698,True,False,1,1,stimulus2AFC2_2IFC_2020_Mar_23_1712_879,stimulus2AFC2_2IFC_2020_Mar_23_1712_880,False,1,2AFC2,2020_Mar_23_1712,2IFC,
2IFC,35,0,35,0,7,-1,c,o,r,0.23457089997828007,True,False,1,1,stimulus2AFC2_2IFC_2020_Mar_23_1712_881,stimulus2AFC2_2IFC_2020_Mar_23_1712_882,False,1,2AFC2,2020_Mar_23_1712,2IFC,
2IFC,36,0,36,0,7,-1,c,o,r,0.5348948999890126,False,True,2,2,stimulus2AFC2_2IFC_2020_Mar_23_1712_883,stimulus2AFC2_2IFC_2020_Mar_23_1712_884,False,1,2AFC2,2020_Mar_23_1712,2IFC,
2IFC,37,0,37,0,7,-1,c,o,r,0.24879230000078678,True,False,1,1,stimulus2AFC2_2IFC_2020_Mar_23_1712_885,stimulus2AFC2_2IFC_2020_Mar_23_1712_886,False,1,2AFC2,2020_Mar_23_1712,2IFC,
2IFC,38,0,38,0,7,-1,c,o,r,0.551731200015638,False,True,2,2,stimulus2AFC2_2IFC_2020_Mar_23_1712_887,stimulus2AFC2_2IFC_2020_Mar_23_1712_888,False,1,2AFC2,2020_Mar_23_1712,2IFC,
2IFC,39,0,39,0,7,-1,c,o,r,0.516774199961219,False,True,2,2,stimulus2AFC2_2IFC_2020_Mar_23_1712_889,stimulus2AFC2_2IFC_2020_Mar_23_1712_890,False,1,2AFC2,2020_Mar_23_1712,2IFC,
2IFC,40,0,40,0,7,-1,c,o,r,0.41767880000406876,False,True,2,2,stimulus2AFC2_2IFC_2020_Mar_23_1712_891,stimulus2AFC2_2IFC_2020_Mar_23_1712_892,False,1,2AFC2,2020_Mar_23_1712,2IFC,
2IFC,41,0,41,0,7,-1,w,r,o,0.3681188999908045,False,True,2,1,stimulus2AFC2_2IFC_2020_Mar_23_1712_893,stimulus2AFC2_2IFC_2020_Mar_23_1712_894,False,1,2AFC2,2020_Mar_23_1712,2IFC,
2IFC,42,0,42,0,7,-1,c,o,r,0.18327969999518245,True,False,1,1,stimulus2AFC2_2IFC_2020_Mar_23_1712_895,stimulus2AFC2_2IFC_2020_Mar_23_1712_896,False,1,2AFC2,2020_Mar_23_1712,2IFC,
2IFC,43,0,43,0,7,-1,c,o,r,0.46829330001492053,False,True,2,2,stimulus2AFC2_2IFC_2020_Mar_23_1712_897,stimulus2AFC2_2IFC_2020_Mar_23_1712_898,False,1,2AFC2,2020_Mar_23_1712,2IFC,
2IFC,44,0,44,0,7,-1,c,o,r,0.10119830002076924,True,False,1,1,stimulus2AFC2_2IFC_2020_Mar_23_1712_899,stimulus2AFC2_2IFC_2020_Mar_23_1712_900,False,1,2AFC2,2020_Mar_23_1712,2IFC,
2IFC,0,0,0,0,3,-1,w,r,o,0.18466989998705685,True,False,1,2,stimulus2AFC2_2IFC_2020_Mar_23_1712_901,stimulus2AFC2_2IFC_2020_Mar_23_1712_902,False,1,2AFC2,2020_Mar_23_1712,2IFC,
2IFC,1,0,1,0,3,-1,c,o,r,0.4846166999777779,False,True,2,2,stimulus2AFC2_2IFC_2020_Mar_23_1712_903,stimulus2AFC2_2IFC_2020_Mar_23_1712_904,False,1,2AFC2,2020_Mar_23_1712,2IFC,
2IFC,2,0,2,0,3,-1,c,o,r,0.21798379998654127,True,False,1,1,stimulus2AFC2_2IFC_2020_Mar_23_1712_905,stimulus2AFC2_2IFC_2020_Mar_23_1712_906,False,1,2AFC2,2020_Mar_23_1712,2IFC,
2IFC,3,0,3,0,3,-1,c,o,r,0.43470019998494536,True,False,1,1,stimulus2AFC2_2IFC_2020_Mar_23_1712_907,stimulus2AFC2_2IFC_2020_Mar_23_1712_908,False,1,2AFC2,2020_Mar_23_1712,2IFC,
2IFC,4,0,4,0,3,-1,c,o,r,0.5015261999797076,False,True,2,2,stimulus2AFC2_2IFC_2020_Mar_23_1712_909,stimulus2AFC2_2IFC_2020_Mar_23_1712_910,False,1,2AFC2,2020_Mar_23_1712,2IFC,
2IFC,5,0,5,0,3,-1,w,r,o,0.18487380002625287,False,True,2,1,stimulus2AFC2_2IFC_2020_Mar_23_1712_911,stimulus2AFC2_2IFC_2020_Mar_23_1712_912,False,1,2AFC2,2020_Mar_23_1712,2IFC,
2IFC,6,0,6,0,3,-1,c,o,r,0.21659109997563064,False,True,2,2,stimulus2AFC2_2IFC_2020_Mar_23_1712_913,stimulus2AFC2_2IFC_2020_Mar_23_1712_914,False,1,2AFC2,2020_Mar_23_1712,2IFC,
2IFC,7,0,7,0,3,-1,c,o,r,0.31656450004084036,False,True,2,2,stimulus2AFC2_2IFC_2020_Mar_23_1712_915,stimulus2AFC2_2IFC_2020_Mar_23_1712_916,False,1,2AFC2,2020_Mar_23_1712,2IFC,
2IFC,8,0,8,0,3,-1,c,o,r,0.21729499998036772,True,False,1,1,stimulus2AFC2_2IFC_2020_Mar_23_1712_917,stimulus2AFC2_2IFC_2020_Mar_23_1712_918,False,1,2AFC2,2020_Mar_23_1712,2IFC,
2IFC,9,0,9,0,3,-1,c,o,r,0.504173900000751,False,True,2,2,stimulus2AFC2_2IFC_2020_Mar_23_1712_919,stimulus2AFC2_2IFC_2020_Mar_23_1712_920,False,1,2AFC2,2020_Mar_23_1712,2IFC,
2IFC,10,0,10,0,3,-1,w,r,o,0.5013062999933027,False,True,2,1,stimulus2AFC2_2IFC_2020_Mar_23_1712_921,stimulus2AFC2_2IFC_2020_Mar_23_1712_922,False,1,2AFC2,2020_Mar_23_1712,2IFC,
2IFC,11,0,11,0,3,-1,c,o,r,0.5680644999956712,True,False,1,1,stimulus2AFC2_2IFC_2020_Mar_23_1712_923,stimulus2AFC2_2IFC_2020_Mar_23_1712_924,False,1,2AFC2,2020_Mar_23_1712,2IFC,
2IFC,12,0,12,0,3,-1,c,o,r,0.4341918000136502,True,False,1,1,stimulus2AFC2_2IFC_2020_Mar_23_1712_925,stimulus2AFC2_2IFC_2020_Mar_23_1712_926,False,1,2AFC2,2020_Mar_23_1712,2IFC,
2IFC,13,0,13,0,3,-1,w,r,o,0.5513819000334479,False,True,2,1,stimulus2AFC2_2IFC_2020_Mar_23_1712_927,stimulus2AFC2_2IFC_2020_Mar_23_1712_928,False,1,2AFC2,2020_Mar_23_1712,2IFC,
2IFC,14,0,14,0,3,-1,c,o,r,0.4172799999942072,False,True,2,2,stimulus2AFC2_2IFC_2020_Mar_23_1712_929,stimulus2AFC2_2IFC_2020_Mar_23_1712_930,False,1,2AFC2,2020_Mar_23_1712,2IFC,
2IFC,15,0,15,0,3,-1,c,o,r,0.48436850000871345,False,True,2,2,stimulus2AFC2_2IFC_2020_Mar_23_1712_931,stimulus2AFC2_2IFC_2020_Mar_23_1712_932,False,1,2AFC2,2020_Mar_23_1712,2IFC,
2IFC,16,0,16,0,3,-1,w,r,o,0.4519507000222802,True,False,1,2,stimulus2AFC2_2IFC_2020_Mar_23_1712_933,stimulus2AFC2_2IFC_2020_Mar_23_1712_934,False,1,2AFC2,2020_Mar_23_1712,2IFC,
2IFC,17,0,17,0,3,-1,w,r,o,0.1854583999956958,False,True,2,1,stimulus2AFC2_2IFC_2020_Mar_23_1712_935,stimulus2AFC2_2IFC_2020_Mar_23_1712_936,False,1,2AFC2,2020_Mar_23_1712,2IFC,
2IFC,18,0,18,0,3,-1,c,o,r,0.4854899999918416,False,True,2,2,stimulus2AFC2_2IFC_2020_Mar_23_1712_937,stimulus2AFC2_2IFC_2020_Mar_23_1712_938,False,1,2AFC2,2020_Mar_23_1712,2IFC,
2IFC,19,0,19,0,3,-1,w,r,o,0.3015805999748409,False,True,2,1,stimulus2AFC2_2IFC_2020_Mar_23_1712_939,stimulus2AFC2_2IFC_2020_Mar_23_1712_940,False,1,2AFC2,2020_Mar_23_1712,2IFC,
2IFC,20,0,20,0,3,-1,c,o,r,0.46731540001928806,True,False,1,1,stimulus2AFC2_2IFC_2020_Mar_23_1712_941,stimulus2AFC2_2IFC_2020_Mar_23_1712_942,False,1,2AFC2,2020_Mar_23_1712,2IFC,
2IFC,21,0,21,0,3,-1,w,r,o,0.41682480002054945,True,False,1,2,stimulus2AFC2_2IFC_2020_Mar_23_1712_943,stimulus2AFC2_2IFC_2020_Mar_23_1712_944,False,1,2AFC2,2020_Mar_23_1712,2IFC,
2IFC,22,0,22,0,3,-1,c,o,r,0.118359399959445,True,False,1,1,stimulus2AFC2_2IFC_2020_Mar_23_1712_945,stimulus2AFC2_2IFC_2020_Mar_23_1712_946,False,1,2AFC2,2020_Mar_23_1712,2IFC,
2IFC,23,0,23,0,3,-1,c,o,r,0.5014626000192948,False,True,2,2,stimulus2AFC2_2IFC_2020_Mar_23_1712_947,stimulus2AFC2_2IFC_2020_Mar_23_1712_948,False,1,2AFC2,2020_Mar_23_1712,2IFC,
2IFC,24,0,24,0,3,-1,c,o,r,0.6350085000158288,False,True,2,2,stimulus2AFC2_2IFC_2020_Mar_23_1712_949,stimulus2AFC2_2IFC_2020_Mar_23_1712_950,False,1,2AFC2,2020_Mar_23_1712,2IFC,
2IFC,25,0,25,0,3,-1,c,o,r,0.6668011000147089,True,False,1,1,stimulus2AFC2_2IFC_2020_Mar_23_1712_951,stimulus2AFC2_2IFC_2020_Mar_23_1712_952,False,1,2AFC2,2020_Mar_23_1712,2IFC,
2IFC,26,0,26,0,3,-1,c,o,r,0.7008408000110649,False,True,2,2,stimulus2AFC2_2IFC_2020_Mar_23_1712_953,stimulus2AFC2_2IFC_2020_Mar_23_1712_954,False,1,2AFC2,2020_Mar_23_1712,2IFC,
2IFC,27,0,27,0,3,-1,c,o,r,0.835050699999556,True,False,1,1,stimulus2AFC2_2IFC_2020_Mar_23_1712_955,stimulus2AFC2_2IFC_2020_Mar_23_1712_956,False,1,2AFC2,2020_Mar_23_1712,2IFC,
2IFC,28,0,28,0,3,-1,c,o,r,0.7012672999990173,False,True,2,2,stimulus2AFC2_2IFC_2020_Mar_23_1712_957,stimulus2AFC2_2IFC_2020_Mar_23_1712_958,False,1,2AFC2,2020_Mar_23_1712,2IFC,
2IFC,29,0,29,0,3,-1,c,o,r,0.5855699999956414,False,True,2,2,stimulus2AFC2_2IFC_2020_Mar_23_1712_959,stimulus2AFC2_2IFC_2020_Mar_23_1712_960,False,1,2AFC2,2020_Mar_23_1712,2IFC,
2IFC,30,0,30,0,3,-1,c,o,r,0.2846030000364408,True,False,1,1,stimulus2AFC2_2IFC_2020_Mar_23_1712_961,stimulus2AFC2_2IFC_2020_Mar_23_1712_962,False,1,2AFC2,2020_Mar_23_1712,2IFC,
2IFC,31,0,31,0,3,-1,w,r,o,0.6847239999915473,False,True,2,1,stimulus2AFC2_2IFC_2020_Mar_23_1712_963,stimulus2AFC2_2IFC_2020_Mar_23_1712_964,False,1,2AFC2,2020_Mar_23_1712,2IFC,
2IFC,32,0,32,0,3,-1,c,o,r,0.6674700999865308,False,True,2,2,stimulus2AFC2_2IFC_2020_Mar_23_1712_965,stimulus2AFC2_2IFC_2020_Mar_23_1712_966,False,1,2AFC2,2020_Mar_23_1712,2IFC,
2IFC,33,0,33,0,3,-1,w,r,o,0.38474419998237863,False,True,2,1,stimulus2AFC2_2IFC_2020_Mar_23_1712_967,stimulus2AFC2_2IFC_2020_Mar_23_1712_968,False,1,2AFC2,2020_Mar_23_1712,2IFC,
2IFC,34,0,34,0,3,-1,c,o,r,0.48485740000614896,False,True,2,2,stimulus2AFC2_2IFC_2020_Mar_23_1712_969,stimulus2AFC2_2IFC_2020_Mar_23_1712_970,False,1,2AFC2,2020_Mar_23_1712,2IFC,
2IFC,35,0,35,0,3,-1,w,r,o,0.36738660000264645,True,False,1,2,stimulus2AFC2_2IFC_2020_Mar_23_1712_971,stimulus2AFC2_2IFC_2020_Mar_23_1712_972,False,1,2AFC2,2020_Mar_23_1712,2IFC,
2IFC,36,0,36,0,3,-1,c,o,r,0.3813207999919541,True,False,1,1,stimulus2AFC2_2IFC_2020_Mar_23_1712_973,stimulus2AFC2_2IFC_2020_Mar_23_1712_974,False,1,2AFC2,2020_Mar_23_1712,2IFC,
2IFC,37,0,37,0,3,-1,w,r,o,0.4001036999979988,False,True,2,1,stimulus2AFC2_2IFC_2020_Mar_23_1712_975,stimulus2AFC2_2IFC_2020_Mar_23_1712_976,False,1,2AFC2,2020_Mar_23_1712,2IFC,
2IFC,38,0,38,0,3,-1,w,r,o,0.6496482000220567,True,False,1,2,stimulus2AFC2_2IFC_2020_Mar_23_1712_977,stimulus2AFC2_2IFC_2020_Mar_23_1712_978,False,1,2AFC2,2020_Mar_23_1712,2IFC,
2IFC,39,0,39,0,3,-1,w,r,o,0.3341461999807507,False,True,2,1,stimulus2AFC2_2IFC_2020_Mar_23_1712_979,stimulus2AFC2_2IFC_2020_Mar_23_1712_980,False,1,2AFC2,2020_Mar_23_1712,2IFC,
2IFC,40,0,40,0,3,-1,w,r,o,0.6187130999751389,True,False,1,2,stimulus2AFC2_2IFC_2020_Mar_23_1712_981,stimulus2AFC2_2IFC_2020_Mar_23_1712_982,False,1,2AFC2,2020_Mar_23_1712,2IFC,
2IFC,41,0,41,0,3,-1,c,o,r,0.5003632000298239,True,False,1,1,stimulus2AFC2_2IFC_2020_Mar_23_1712_983,stimulus2AFC2_2IFC_2020_Mar_23_1712_984,False,1,2AFC2,2020_Mar_23_1712,2IFC,
2IFC,42,0,42,0,3,-1,c,o,r,0.5203124000108801,False,True,2,2,stimulus2AFC2_2IFC_2020_Mar_23_1712_985,stimulus2AFC2_2IFC_2020_Mar_23_1712_986,False,1,2AFC2,2020_Mar_23_1712,2IFC,
2IFC,43,0,43,0,3,-1,c,o,r,0.6675716000027023,True,False,1,1,stimulus2AFC2_2IFC_2020_Mar_23_1712_987,stimulus2AFC2_2IFC_2020_Mar_23_1712_988,False,1,2AFC2,2020_Mar_23_1712,2IFC,
2IFC,44,0,44,0,3,-1,c,o,r,0.6508937000180595,False,True,2,2,stimulus2AFC2_2IFC_2020_Mar_23_1712_989,stimulus2AFC2_2IFC_2020_Mar_23_1712_990,False,1,2AFC2,2020_Mar_23_1712,2IFC,
2IFC,0,0,0,0,9,-1,c,o,r,0.017098699987400323,True,False,1,1,stimulus2AFC2_2IFC_2020_Mar_23_1712_991,stimulus2AFC2_2IFC_2020_Mar_23_1712_992,False,1,2AFC2,2020_Mar_23_1712,2IFC,
2IFC,1,0,1,0,9,-1,c,o,r,0.38276310003129765,True,False,1,1,stimulus2AFC2_2IFC_2020_Mar_23_1712_993,stimulus2AFC2_2IFC_2020_Mar_23_1712_994,False,1,2AFC2,2020_Mar_23_1712,2IFC,
2IFC,2,0,2,0,9,-1,c,o,r,0.26710759999696165,False,True,2,2,stimulus2AFC2_2IFC_2020_Mar_23_1712_995,stimulus2AFC2_2IFC_2020_Mar_23_1712_996,False,1,2AFC2,2020_Mar_23_1712,2IFC,
2IFC,3,0,3,0,9,-1,c,o,r,0.1853090999647975,True,False,1,1,stimulus2AFC2_2IFC_2020_Mar_23_1712_997,stimulus2AFC2_2IFC_2020_Mar_23_1712_998,False,1,2AFC2,2020_Mar_23_1712,2IFC,
2IFC,4,0,4,0,9,-1,w,r,o,0.6338555999682285,False,True,2,1,stimulus2AFC2_2IFC_2020_Mar_23_1712_999,stimulus2AFC2_2IFC_2020_Mar_23_1712_1000,False,1,2AFC2,2020_Mar_23_1712,2IFC,
2IFC,5,0,5,0,9,-1,c,o,r,0.16803120000986382,True,False,1,1,stimulus2AFC2_2IFC_2020_Mar_23_1712_1001,stimulus2AFC2_2IFC_2020_Mar_23_1712_1002,False,1,2AFC2,2020_Mar_23_1712,2IFC,
2IFC,6,0,6,0,9,-1,c,o,r,0.25003759999526665,True,False,1,1,stimulus2AFC2_2IFC_2020_Mar_23_1712_1003,stimulus2AFC2_2IFC_2020_Mar_23_1712_1004,False,1,2AFC2,2020_Mar_23_1712,2IFC,
2IFC,7,0,7,0,9,-1,c,o,r,0.31755199999315664,True,False,1,1,stimulus2AFC2_2IFC_2020_Mar_23_1712_1005,stimulus2AFC2_2IFC_2020_Mar_23_1712_1006,False,1,2AFC2,2020_Mar_23_1712,2IFC,
2IFC,8,0,8,0,9,-1,c,o,r,0.35044700000435114,True,False,1,1,stimulus2AFC2_2IFC_2020_Mar_23_1712_1007,stimulus2AFC2_2IFC_2020_Mar_23_1712_1008,False,1,2AFC2,2020_Mar_23_1712,2IFC,
2IFC,9,0,9,0,9,-1,c,o,r,0.2017104999977164,True,False,1,1,stimulus2AFC2_2IFC_2020_Mar_23_1712_1009,stimulus2AFC2_2IFC_2020_Mar_23_1712_1010,False,1,2AFC2,2020_Mar_23_1712,2IFC,
2IFC,10,0,10,0,9,-1,c,o,r,0.13423809997038916,False,True,2,2,stimulus2AFC2_2IFC_2020_Mar_23_1712_1011,stimulus2AFC2_2IFC_2020_Mar_23_1712_1012,False,1,2AFC2,2020_Mar_23_1712,2IFC,
2IFC,11,0,11,0,9,-1,c,o,r,0.3352731000049971,False,True,2,2,stimulus2AFC2_2IFC_2020_Mar_23_1712_1013,stimulus2AFC2_2IFC_2020_Mar_23_1712_1014,False,1,2AFC2,2020_Mar_23_1712,2IFC,
2IFC,12,0,12,0,9,-1,c,o,r,0.43462900002487004,False,True,2,2,stimulus2AFC2_2IFC_2020_Mar_23_1712_1015,stimulus2AFC2_2IFC_2020_Mar_23_1712_1016,False,1,2AFC2,2020_Mar_23_1712,2IFC,
2IFC,13,0,13,0,9,-1,c,o,r,0.2511604999890551,True,False,1,1,stimulus2AFC2_2IFC_2020_Mar_23_1712_1017,stimulus2AFC2_2IFC_2020_Mar_23_1712_1018,False,1,2AFC2,2020_Mar_23_1712,2IFC,
2IFC,14,0,14,0,9,-1,c,o,r,0.31788839999353513,False,True,2,2,stimulus2AFC2_2IFC_2020_Mar_23_1712_1019,stimulus2AFC2_2IFC_2020_Mar_23_1712_1020,False,1,2AFC2,2020_Mar_23_1712,2IFC,
2IFC,15,0,15,0,9,-1,c,o,r,0.40146109997294843,False,True,2,2,stimulus2AFC2_2IFC_2020_Mar_23_1712_1021,stimulus2AFC2_2IFC_2020_Mar_23_1712_1022,False,1,2AFC2,2020_Mar_23_1712,2IFC,
2IFC,16,0,16,0,9,-1,c,o,r,0.15113559999736026,True,False,1,1,stimulus2AFC2_2IFC_2020_Mar_23_1712_1023,stimulus2AFC2_2IFC_2020_Mar_23_1712_1024,False,1,2AFC2,2020_Mar_23_1712,2IFC,
2IFC,17,0,17,0,9,-1,c,o,r,0.18525629997020587,True,False,1,1,stimulus2AFC2_2IFC_2020_Mar_23_1712_1025,stimulus2AFC2_2IFC_2020_Mar_23_1712_1026,False,1,2AFC2,2020_Mar_23_1712,2IFC,
2IFC,18,0,18,0,9,-1,c,o,r,0.21753620001254603,False,True,2,2,stimulus2AFC2_2IFC_2020_Mar_23_1712_1027,stimulus2AFC2_2IFC_2020_Mar_23_1712_1028,False,1,2AFC2,2020_Mar_23_1712,2IFC,
2IFC,19,0,19,0,9,-1,c,o,r,0.18446090002544224,True,False,1,1,stimulus2AFC2_2IFC_2020_Mar_23_1712_1029,stimulus2AFC2_2IFC_2020_Mar_23_1712_1030,False,1,2AFC2,2020_Mar_23_1712,2IFC,
2IFC,20,0,20,0,9,-1,c,o,r,0.21740879997378215,True,False,1,1,stimulus2AFC2_2IFC_2020_Mar_23_1712_1031,stimulus2AFC2_2IFC_2020_Mar_23_1712_1032,False,1,2AFC2,2020_Mar_23_1712,2IFC,
2IFC,21,0,21,0,9,-1,c,o,r,0.18548589997226372,False,True,2,2,stimulus2AFC2_2IFC_2020_Mar_23_1712_1033,stimulus2AFC2_2IFC_2020_Mar_23_1712_1034,False,1,2AFC2,2020_Mar_23_1712,2IFC,
2IFC,22,0,22,0,9,-1,c,o,r,0.49926710000727326,True,False,1,1,stimulus2AFC2_2IFC_2020_Mar_23_1712_1035,stimulus2AFC2_2IFC_2020_Mar_23_1712_1036,False,1,2AFC2,2020_Mar_23_1712,2IFC,
2IFC,23,0,23,0,9,-1,c,o,r,0.4171189999906346,False,True,2,2,stimulus2AFC2_2IFC_2020_Mar_23_1712_1037,stimulus2AFC2_2IFC_2020_Mar_23_1712_1038,False,1,2AFC2,2020_Mar_23_1712,2IFC,
2IFC,24,0,24,0,9,-1,c,o,r,0.4844829000066966,False,True,2,2,stimulus2AFC2_2IFC_2020_Mar_23_1712_1039,stimulus2AFC2_2IFC_2020_Mar_23_1712_1040,False,1,2AFC2,2020_Mar_23_1712,2IFC,
2IFC,25,0,25,0,9,-1,c,o,r,0.2850488999974914,False,True,2,2,stimulus2AFC2_2IFC_2020_Mar_23_1712_1041,stimulus2AFC2_2IFC_2020_Mar_23_1712_1042,False,1,2AFC2,2020_Mar_23_1712,2IFC,
2IFC,26,0,26,0,9,-1,c,o,r,0.16730959998676553,True,False,1,1,stimulus2AFC2_2IFC_2020_Mar_23_1712_1043,stimulus2AFC2_2IFC_2020_Mar_23_1712_1044,False,1,2AFC2,2020_Mar_23_1712,2IFC,
2IFC,27,0,27,0,9,-1,c,o,r,0.4347094999975525,False,True,2,2,stimulus2AFC2_2IFC_2020_Mar_23_1712_1045,stimulus2AFC2_2IFC_2020_Mar_23_1712_1046,False,1,2AFC2,2020_Mar_23_1712,2IFC,
2IFC,28,0,28,0,9,-1,c,o,r,0.43450870004016906,False,True,2,2,stimulus2AFC2_2IFC_2020_Mar_23_1712_1047,stimulus2AFC2_2IFC_2020_Mar_23_1712_1048,False,1,2AFC2,2020_Mar_23_1712,2IFC,
2IFC,29,0,29,0,9,-1,c,o,r,0.5337645999970846,False,True,2,2,stimulus2AFC2_2IFC_2020_Mar_23_1712_1049,stimulus2AFC2_2IFC_2020_Mar_23_1712_1050,False,1,2AFC2,2020_Mar_23_1712,2IFC,
2IFC,30,0,30,0,9,-1,c,o,r,0.18458000000100583,True,False,1,1,stimulus2AFC2_2IFC_2020_Mar_23_1712_1051,stimulus2AFC2_2IFC_2020_Mar_23_1712_1052,False,1,2AFC2,2020_Mar_23_1712,2IFC,
2IFC,31,0,31,0,9,-1,c,o,r,0.36857859999872744,False,True,2,2,stimulus2AFC2_2IFC_2020_Mar_23_1712_1053,stimulus2AFC2_2IFC_2020_Mar_23_1712_1054,False,1,2AFC2,2020_Mar_23_1712,2IFC,
2IFC,32,0,32,0,9,-1,c,o,r,0.10207809996791184,True,False,1,1,stimulus2AFC2_2IFC_2020_Mar_23_1712_1055,stimulus2AFC2_2IFC_2020_Mar_23_1712_1056,False,1,2AFC2,2020_Mar_23_1712,2IFC,
2IFC,33,0,33,0,9,-1,c,o,r,0.3685948000056669,False,True,2,2,stimulus2AFC2_2IFC_2020_Mar_23_1712_1057,stimulus2AFC2_2IFC_2020_Mar_23_1712_1058,False,1,2AFC2,2020_Mar_23_1712,2IFC,
2IFC,34,0,34,0,9,-1,w,r,o,0.303341300052125,False,True,2,1,stimulus2AFC2_2IFC_2020_Mar_23_1712_1059,stimulus2AFC2_2IFC_2020_Mar_23_1712_1060,False,1,2AFC2,2020_Mar_23_1712,2IFC,
2IFC,35,0,35,0,9,-1,c,o,r,0.16686549998121336,True,False,1,1,stimulus2AFC2_2IFC_2020_Mar_23_1712_1061,stimulus2AFC2_2IFC_2020_Mar_23_1712_1062,False,1,2AFC2,2020_Mar_23_1712,2IFC,
2IFC,36,0,36,0,9,-1,c,o,r,0.1846139999688603,False,True,2,2,stimulus2AFC2_2IFC_2020_Mar_23_1712_1063,stimulus2AFC2_2IFC_2020_Mar_23_1712_1064,False,1,2AFC2,2020_Mar_23_1712,2IFC,
2IFC,37,0,37,0,9,-1,c,o,r,0.4005897999741137,False,True,2,2,stimulus2AFC2_2IFC_2020_Mar_23_1712_1065,stimulus2AFC2_2IFC_2020_Mar_23_1712_1066,False,1,2AFC2,2020_Mar_23_1712,2IFC,
2IFC,38,0,38,0,9,-1,c,o,r,0.234131500008516,True,False,1,1,stimulus2AFC2_2IFC_2020_Mar_23_1712_1067,stimulus2AFC2_2IFC_2020_Mar_23_1712_1068,False,1,2AFC2,2020_Mar_23_1712,2IFC,
2IFC,39,0,39,0,9,-1,w,r,o,0.401336100010667,True,False,1,2,stimulus2AFC2_2IFC_2020_Mar_23_1712_1069,stimulus2AFC2_2IFC_2020_Mar_23_1712_1070,False,1,2AFC2,2020_Mar_23_1712,2IFC,
2IFC,40,0,40,0,9,-1,c,o,r,0.04121639998629689,True,False,1,1,stimulus2AFC2_2IFC_2020_Mar_23_1712_1071,stimulus2AFC2_2IFC_2020_Mar_23_1712_1072,False,1,2AFC2,2020_Mar_23_1712,2IFC,
2IFC,41,0,41,0,9,-1,c,o,r,0.43549619999248534,False,True,2,2,stimulus2AFC2_2IFC_2020_Mar_23_1712_1073,stimulus2AFC2_2IFC_2020_Mar_23_1712_1074,False,1,2AFC2,2020_Mar_23_1712,2IFC,
2IFC,42,0,42,0,9,-1,c,o,r,0.01796299999114126,True,False,1,1,stimulus2AFC2_2IFC_2020_Mar_23_1712_1075,stimulus2AFC2_2IFC_2020_Mar_23_1712_1076,False,1,2AFC2,2020_Mar_23_1712,2IFC,
2IFC,43,0,43,0,9,-1,c,o,r,0.20097559998976067,False,True,2,2,stimulus2AFC2_2IFC_2020_Mar_23_1712_1077,stimulus2AFC2_2IFC_2020_Mar_23_1712_1078,False,1,2AFC2,2020_Mar_23_1712,2IFC,
2IFC,44,0,44,0,9,-1,c,o,r,0.1345213000313379,True,False,1,1,stimulus2AFC2_2IFC_2020_Mar_23_1712_1079,stimulus2AFC2_2IFC_2020_Mar_23_1712_1080,False,1,2AFC2,2020_Mar_23_1712,2IFC,
