Task,trials.thisRepN,trials.thisTrialN,trials.thisN,trials.thisIndex,signal_intensity,constant Value,response,Subject_Action,Stimulus_Present,time_response,signal_on_stimuluspos1,signal_on_stimuluspos2,stimulus_name_pos1,stimulus_name_pos2,random_intensity,session,participant,date,expName,
Yes-No Task,0,0,0,0,12.0,-1,Correct Rejection,0,0,0.2678275999787729,False,-1,stimulus_MaxA_Yes-No Task_2020_Feb_07_1236_1,-1,False,2,MaxA,2020_Feb_07_1236,Yes-No Task,
Yes-No Task,1,0,1,0,12.0,-1,False Alarm,1,0,0.25098750001052395,False,-1,stimulus_MaxA_Yes-No Task_2020_Feb_07_1236_2,-1,False,2,MaxA,2020_Feb_07_1236,Yes-No Task,
Yes-No Task,2,0,2,0,12.0,-1,Hit,1,1,0.3507330000284128,True,-1,stimulus_MaxA_Yes-No Task_2020_Feb_07_1236_3,-1,False,2,MaxA,2020_Feb_07_1236,Yes-No Task,
Yes-No Task,3,0,3,0,12.0,-1,Correct Rejection,0,0,0.26659230000223033,False,-1,stimulus_MaxA_Yes-No Task_2020_Feb_07_1236_4,-1,False,2,MaxA,2020_Feb_07_1236,Yes-No Task,
Yes-No Task,4,0,4,0,12.0,-1,Correct Rejection,0,0,0.3339683999947738,False,-1,stimulus_MaxA_Yes-No Task_2020_Feb_07_1236_5,-1,False,2,MaxA,2020_Feb_07_1236,Yes-No Task,
Yes-No Task,5,0,5,0,12.0,-1,Correct Rejection,0,0,0.31794710000394844,False,-1,stimulus_MaxA_Yes-No Task_2020_Feb_07_1236_6,-1,False,2,MaxA,2020_Feb_07_1236,Yes-No Task,
Yes-No Task,6,0,6,0,12.0,-1,Correct Rejection,0,0,0.3010525000281632,False,-1,stimulus_MaxA_Yes-No Task_2020_Feb_07_1236_7,-1,False,2,MaxA,2020_Feb_07_1236,Yes-No Task,
Yes-No Task,7,0,7,0,12.0,-1,Hit,1,1,0.33461849999730475,True,-1,stimulus_MaxA_Yes-No Task_2020_Feb_07_1236_8,-1,False,2,MaxA,2020_Feb_07_1236,Yes-No Task,
Yes-No Task,8,0,8,0,12.0,-1,Correct Rejection,0,0,0.5504049000155646,False,-1,stimulus_MaxA_Yes-No Task_2020_Feb_07_1236_9,-1,False,2,MaxA,2020_Feb_07_1236,Yes-No Task,
Yes-No Task,9,0,9,0,12.0,-1,Hit,1,1,0.3349826000048779,True,-1,stimulus_MaxA_Yes-No Task_2020_Feb_07_1236_10,-1,False,2,MaxA,2020_Feb_07_1236,Yes-No Task,
Yes-No Task,10,0,10,0,12.0,-1,Hit,1,1,0.33457279999856837,True,-1,stimulus_MaxA_Yes-No Task_2020_Feb_07_1236_11,-1,False,2,MaxA,2020_Feb_07_1236,Yes-No Task,
Yes-No Task,11,0,11,0,12.0,-1,Correct Rejection,0,0,0.40384549999726005,False,-1,stimulus_MaxA_Yes-No Task_2020_Feb_07_1236_12,-1,False,2,MaxA,2020_Feb_07_1236,Yes-No Task,
Yes-No Task,12,0,12,0,12.0,-1,Correct Rejection,0,0,0.45242899999720976,False,-1,stimulus_MaxA_Yes-No Task_2020_Feb_07_1236_13,-1,False,2,MaxA,2020_Feb_07_1236,Yes-No Task,
Yes-No Task,13,0,13,0,12.0,-1,Hit,1,1,0.33462690000305884,True,-1,stimulus_MaxA_Yes-No Task_2020_Feb_07_1236_14,-1,False,2,MaxA,2020_Feb_07_1236,Yes-No Task,
Yes-No Task,14,0,14,0,12.0,-1,Hit,1,1,0.3825436999904923,True,-1,stimulus_MaxA_Yes-No Task_2020_Feb_07_1236_15,-1,False,2,MaxA,2020_Feb_07_1236,Yes-No Task,
Yes-No Task,15,0,15,0,12.0,-1,Correct Rejection,0,0,0.33272129998658784,False,-1,stimulus_MaxA_Yes-No Task_2020_Feb_07_1236_16,-1,False,2,MaxA,2020_Feb_07_1236,Yes-No Task,
Yes-No Task,16,0,16,0,12.0,-1,Hit,1,1,0.4148523999901954,True,-1,stimulus_MaxA_Yes-No Task_2020_Feb_07_1236_17,-1,False,2,MaxA,2020_Feb_07_1236,Yes-No Task,
Yes-No Task,17,0,17,0,12.0,-1,Hit,1,1,0.4117207999806851,True,-1,stimulus_MaxA_Yes-No Task_2020_Feb_07_1236_18,-1,False,2,MaxA,2020_Feb_07_1236,Yes-No Task,
Yes-No Task,18,0,18,0,12.0,-1,Hit,1,1,0.3340209999878425,True,-1,stimulus_MaxA_Yes-No Task_2020_Feb_07_1236_19,-1,False,2,MaxA,2020_Feb_07_1236,Yes-No Task,
Yes-No Task,19,0,19,0,12.0,-1,Hit,1,1,0.3699886999966111,True,-1,stimulus_MaxA_Yes-No Task_2020_Feb_07_1236_20,-1,False,2,MaxA,2020_Feb_07_1236,Yes-No Task,
Yes-No Task,20,0,20,0,12.0,-1,Correct Rejection,0,0,0.386126899975352,False,-1,stimulus_MaxA_Yes-No Task_2020_Feb_07_1236_21,-1,False,2,MaxA,2020_Feb_07_1236,Yes-No Task,
Yes-No Task,21,0,21,0,12.0,-1,Correct Rejection,0,0,0.3819274000125006,False,-1,stimulus_MaxA_Yes-No Task_2020_Feb_07_1236_22,-1,False,2,MaxA,2020_Feb_07_1236,Yes-No Task,
Yes-No Task,22,0,22,0,12.0,-1,Hit,1,1,0.2668095999979414,True,-1,stimulus_MaxA_Yes-No Task_2020_Feb_07_1236_23,-1,False,2,MaxA,2020_Feb_07_1236,Yes-No Task,
Yes-No Task,23,0,23,0,12.0,-1,Correct Rejection,0,0,0.38482410000870004,False,-1,stimulus_MaxA_Yes-No Task_2020_Feb_07_1236_24,-1,False,2,MaxA,2020_Feb_07_1236,Yes-No Task,
Yes-No Task,24,0,24,0,12.0,-1,Correct Rejection,0,0,0.43149390001781285,False,-1,stimulus_MaxA_Yes-No Task_2020_Feb_07_1236_25,-1,False,2,MaxA,2020_Feb_07_1236,Yes-No Task,
Yes-No Task,25,0,25,0,12.0,-1,Hit,1,1,0.4500394999922719,True,-1,stimulus_MaxA_Yes-No Task_2020_Feb_07_1236_26,-1,False,2,MaxA,2020_Feb_07_1236,Yes-No Task,
Yes-No Task,26,0,26,0,12.0,-1,Correct Rejection,0,0,0.2851972000207752,False,-1,stimulus_MaxA_Yes-No Task_2020_Feb_07_1236_27,-1,False,2,MaxA,2020_Feb_07_1236,Yes-No Task,
Yes-No Task,27,0,27,0,12.0,-1,Correct Rejection,0,0,0.4196111000201199,False,-1,stimulus_MaxA_Yes-No Task_2020_Feb_07_1236_28,-1,False,2,MaxA,2020_Feb_07_1236,Yes-No Task,
Yes-No Task,28,0,28,0,12.0,-1,Correct Rejection,0,0,0.36906070000259206,False,-1,stimulus_MaxA_Yes-No Task_2020_Feb_07_1236_29,-1,False,2,MaxA,2020_Feb_07_1236,Yes-No Task,
Yes-No Task,29,0,29,0,12.0,-1,Correct Rejection,0,0,0.3681784000073094,False,-1,stimulus_MaxA_Yes-No Task_2020_Feb_07_1236_30,-1,False,2,MaxA,2020_Feb_07_1236,Yes-No Task,
Yes-No Task,30,0,30,0,12.0,-1,Correct Rejection,0,0,0.3184479000046849,False,-1,stimulus_MaxA_Yes-No Task_2020_Feb_07_1236_31,-1,False,2,MaxA,2020_Feb_07_1236,Yes-No Task,
Yes-No Task,31,0,31,0,12.0,-1,Hit,1,1,0.33380100000067614,True,-1,stimulus_MaxA_Yes-No Task_2020_Feb_07_1236_32,-1,False,2,MaxA,2020_Feb_07_1236,Yes-No Task,
Yes-No Task,32,0,32,0,12.0,-1,Hit,1,1,0.3639171999820974,True,-1,stimulus_MaxA_Yes-No Task_2020_Feb_07_1236_33,-1,False,2,MaxA,2020_Feb_07_1236,Yes-No Task,
Yes-No Task,33,0,33,0,12.0,-1,Hit,1,1,0.38386160001391545,True,-1,stimulus_MaxA_Yes-No Task_2020_Feb_07_1236_34,-1,False,2,MaxA,2020_Feb_07_1236,Yes-No Task,
Yes-No Task,34,0,34,0,12.0,-1,Miss,0,1,0.33615849999478087,True,-1,stimulus_MaxA_Yes-No Task_2020_Feb_07_1236_35,-1,False,2,MaxA,2020_Feb_07_1236,Yes-No Task,
Yes-No Task,35,0,35,0,12.0,-1,Hit,1,1,0.2840831000066828,True,-1,stimulus_MaxA_Yes-No Task_2020_Feb_07_1236_36,-1,False,2,MaxA,2020_Feb_07_1236,Yes-No Task,
Yes-No Task,36,0,36,0,12.0,-1,Correct Rejection,0,0,0.4193595999968238,False,-1,stimulus_MaxA_Yes-No Task_2020_Feb_07_1236_37,-1,False,2,MaxA,2020_Feb_07_1236,Yes-No Task,
Yes-No Task,37,0,37,0,12.0,-1,Correct Rejection,0,0,0.352113000000827,False,-1,stimulus_MaxA_Yes-No Task_2020_Feb_07_1236_38,-1,False,2,MaxA,2020_Feb_07_1236,Yes-No Task,
Yes-No Task,38,0,38,0,12.0,-1,Correct Rejection,0,0,0.4675546999787912,False,-1,stimulus_MaxA_Yes-No Task_2020_Feb_07_1236_39,-1,False,2,MaxA,2020_Feb_07_1236,Yes-No Task,
Yes-No Task,39,0,39,0,12.0,-1,Correct Rejection,0,0,0.36681410000892356,False,-1,stimulus_MaxA_Yes-No Task_2020_Feb_07_1236_40,-1,False,2,MaxA,2020_Feb_07_1236,Yes-No Task,
