Task,trials.thisRepN,trials.thisTrialN,trials.thisN,trials.thisIndex,signal_intensity,constant Value,response,time_response,signal_on_stimuluspos1,signal_on_stimuluspos2,stimulus_name_pos1,stimulus_name_pos2,random_intensity,session,participant,date,expName,
Yes-No Task,0,0,0,0,9.0,-1,Correct Rejection,0.300720100000035,False,-1,stimulus_MaxA_Yes-No Task_2020_Feb_02_1921_1,-1,False,6,MaxA,2020_Feb_02_1921,Yes-No Task,
Yes-No Task,1,0,1,0,9.0,-1,Hit,0.21690919999673497,True,-1,stimulus_MaxA_Yes-No Task_2020_Feb_02_1921_2,-1,False,6,MaxA,2020_Feb_02_1921,Yes-No Task,
Yes-No Task,2,0,2,0,9.0,-1,Correct Rejection,0.2670661000011023,False,-1,stimulus_MaxA_Yes-No Task_2020_Feb_02_1921_3,-1,False,6,MaxA,2020_Feb_02_1921,Yes-No Task,
Yes-No Task,3,0,3,0,9.0,-1,Hit,0.33385570000245934,True,-1,stimulus_MaxA_Yes-No Task_2020_Feb_02_1921_4,-1,False,6,MaxA,2020_Feb_02_1921,Yes-No Task,
Yes-No Task,4,0,4,0,9.0,-1,False Alarm,0.3006716999952914,False,-1,stimulus_MaxA_Yes-No Task_2020_Feb_02_1921_5,-1,False,6,MaxA,2020_Feb_02_1921,Yes-No Task,
Yes-No Task,5,0,5,0,9.0,-1,Correct Rejection,0.26666819999809377,False,-1,stimulus_MaxA_Yes-No Task_2020_Feb_02_1921_6,-1,False,6,MaxA,2020_Feb_02_1921,Yes-No Task,
Yes-No Task,6,0,6,0,9.0,-1,Correct Rejection,0.2169544999997015,False,-1,stimulus_MaxA_Yes-No Task_2020_Feb_02_1921_7,-1,False,6,MaxA,2020_Feb_02_1921,Yes-No Task,
Yes-No Task,7,0,7,0,9.0,-1,Correct Rejection,0.40033280000352534,False,-1,stimulus_MaxA_Yes-No Task_2020_Feb_02_1921_8,-1,False,6,MaxA,2020_Feb_02_1921,Yes-No Task,
Yes-No Task,8,0,8,0,9.0,-1,Correct Rejection,0.30035599999973783,False,-1,stimulus_MaxA_Yes-No Task_2020_Feb_02_1921_9,-1,False,6,MaxA,2020_Feb_02_1921,Yes-No Task,
Yes-No Task,9,0,9,0,9.0,-1,Miss,0.2501754999975674,True,-1,stimulus_MaxA_Yes-No Task_2020_Feb_02_1921_10,-1,False,6,MaxA,2020_Feb_02_1921,Yes-No Task,
Yes-No Task,10,0,10,0,9.0,-1,Correct Rejection,0.46708229999785544,False,-1,stimulus_MaxA_Yes-No Task_2020_Feb_02_1921_11,-1,False,6,MaxA,2020_Feb_02_1921,Yes-No Task,
Yes-No Task,11,0,11,0,9.0,-1,Miss,0.3172219000043697,True,-1,stimulus_MaxA_Yes-No Task_2020_Feb_02_1921_12,-1,False,6,MaxA,2020_Feb_02_1921,Yes-No Task,
Yes-No Task,12,0,12,0,9.0,-1,Hit,0.48426679999829503,True,-1,stimulus_MaxA_Yes-No Task_2020_Feb_02_1921_13,-1,False,6,MaxA,2020_Feb_02_1921,Yes-No Task,
Yes-No Task,13,0,13,0,9.0,-1,Hit,0.3675762999992003,True,-1,stimulus_MaxA_Yes-No Task_2020_Feb_02_1921_14,-1,False,6,MaxA,2020_Feb_02_1921,Yes-No Task,
Yes-No Task,14,0,14,0,9.0,-1,Hit,0.28383970000140835,True,-1,stimulus_MaxA_Yes-No Task_2020_Feb_02_1921_15,-1,False,6,MaxA,2020_Feb_02_1921,Yes-No Task,
Yes-No Task,15,0,15,0,9.0,-1,Hit,0.317345600000408,True,-1,stimulus_MaxA_Yes-No Task_2020_Feb_02_1921_16,-1,False,6,MaxA,2020_Feb_02_1921,Yes-No Task,
Yes-No Task,16,0,16,0,9.0,-1,Correct Rejection,0.467829500004882,False,-1,stimulus_MaxA_Yes-No Task_2020_Feb_02_1921_17,-1,False,6,MaxA,2020_Feb_02_1921,Yes-No Task,
Yes-No Task,17,0,17,0,9.0,-1,Hit,0.38307150000036927,True,-1,stimulus_MaxA_Yes-No Task_2020_Feb_02_1921_18,-1,False,6,MaxA,2020_Feb_02_1921,Yes-No Task,
Yes-No Task,18,0,18,0,9.0,-1,Hit,0.3844141999943531,True,-1,stimulus_MaxA_Yes-No Task_2020_Feb_02_1921_19,-1,False,6,MaxA,2020_Feb_02_1921,Yes-No Task,
Yes-No Task,19,0,19,0,9.0,-1,Hit,0.35066050000023097,True,-1,stimulus_MaxA_Yes-No Task_2020_Feb_02_1921_20,-1,False,6,MaxA,2020_Feb_02_1921,Yes-No Task,
Yes-No Task,20,0,20,0,9.0,-1,Hit,0.30134549999638693,True,-1,stimulus_MaxA_Yes-No Task_2020_Feb_02_1921_21,-1,False,6,MaxA,2020_Feb_02_1921,Yes-No Task,
Yes-No Task,21,0,21,0,9.0,-1,Hit,0.36724530000356026,True,-1,stimulus_MaxA_Yes-No Task_2020_Feb_02_1921_22,-1,False,6,MaxA,2020_Feb_02_1921,Yes-No Task,
Yes-No Task,22,0,22,0,9.0,-1,Hit,0.36763839999912307,True,-1,stimulus_MaxA_Yes-No Task_2020_Feb_02_1921_23,-1,False,6,MaxA,2020_Feb_02_1921,Yes-No Task,
Yes-No Task,23,0,23,0,9.0,-1,Hit,0.35067430000344757,True,-1,stimulus_MaxA_Yes-No Task_2020_Feb_02_1921_24,-1,False,6,MaxA,2020_Feb_02_1921,Yes-No Task,
Yes-No Task,24,0,24,0,9.0,-1,Correct Rejection,0.38400779999938095,False,-1,stimulus_MaxA_Yes-No Task_2020_Feb_02_1921_25,-1,False,6,MaxA,2020_Feb_02_1921,Yes-No Task,
Yes-No Task,25,0,25,0,9.0,-1,Correct Rejection,0.3652540000039153,False,-1,stimulus_MaxA_Yes-No Task_2020_Feb_02_1921_26,-1,False,6,MaxA,2020_Feb_02_1921,Yes-No Task,
Yes-No Task,26,0,26,0,9.0,-1,Hit,0.38402460000361316,True,-1,stimulus_MaxA_Yes-No Task_2020_Feb_02_1921_27,-1,False,6,MaxA,2020_Feb_02_1921,Yes-No Task,
Yes-No Task,27,0,27,0,9.0,-1,False Alarm,0.3339804000061122,False,-1,stimulus_MaxA_Yes-No Task_2020_Feb_02_1921_28,-1,False,6,MaxA,2020_Feb_02_1921,Yes-No Task,
Yes-No Task,28,0,28,0,9.0,-1,Hit,0.3674944999947911,True,-1,stimulus_MaxA_Yes-No Task_2020_Feb_02_1921_29,-1,False,6,MaxA,2020_Feb_02_1921,Yes-No Task,
Yes-No Task,29,0,29,0,9.0,-1,Correct Rejection,0.4507374000022537,False,-1,stimulus_MaxA_Yes-No Task_2020_Feb_02_1921_30,-1,False,6,MaxA,2020_Feb_02_1921,Yes-No Task,
Yes-No Task,30,0,30,0,9.0,-1,Hit,0.33404090000112774,True,-1,stimulus_MaxA_Yes-No Task_2020_Feb_02_1921_31,-1,False,6,MaxA,2020_Feb_02_1921,Yes-No Task,
Yes-No Task,31,0,31,0,9.0,-1,Hit,0.43434110000089277,True,-1,stimulus_MaxA_Yes-No Task_2020_Feb_02_1921_32,-1,False,6,MaxA,2020_Feb_02_1921,Yes-No Task,
Yes-No Task,32,0,32,0,9.0,-1,Correct Rejection,0.3844480999978259,False,-1,stimulus_MaxA_Yes-No Task_2020_Feb_02_1921_33,-1,False,6,MaxA,2020_Feb_02_1921,Yes-No Task,
Yes-No Task,33,0,33,0,9.0,-1,Hit,0.26726159999816446,True,-1,stimulus_MaxA_Yes-No Task_2020_Feb_02_1921_34,-1,False,6,MaxA,2020_Feb_02_1921,Yes-No Task,
Yes-No Task,34,0,34,0,9.0,-1,Correct Rejection,0.6005182000008062,False,-1,stimulus_MaxA_Yes-No Task_2020_Feb_02_1921_35,-1,False,6,MaxA,2020_Feb_02_1921,Yes-No Task,
Yes-No Task,35,0,35,0,9.0,-1,Hit,0.23474249999708263,True,-1,stimulus_MaxA_Yes-No Task_2020_Feb_02_1921_36,-1,False,6,MaxA,2020_Feb_02_1921,Yes-No Task,
Yes-No Task,36,0,36,0,9.0,-1,Correct Rejection,0.4007058999995934,False,-1,stimulus_MaxA_Yes-No Task_2020_Feb_02_1921_37,-1,False,6,MaxA,2020_Feb_02_1921,Yes-No Task,
Yes-No Task,37,0,37,0,9.0,-1,Hit,0.25030490000062855,True,-1,stimulus_MaxA_Yes-No Task_2020_Feb_02_1921_38,-1,False,6,MaxA,2020_Feb_02_1921,Yes-No Task,
Yes-No Task,38,0,38,0,9.0,-1,Miss,0.33360109999921406,True,-1,stimulus_MaxA_Yes-No Task_2020_Feb_02_1921_39,-1,False,6,MaxA,2020_Feb_02_1921,Yes-No Task,
Yes-No Task,39,0,39,0,9.0,-1,False Alarm,0.21668630000203848,False,-1,stimulus_MaxA_Yes-No Task_2020_Feb_02_1921_40,-1,False,6,MaxA,2020_Feb_02_1921,Yes-No Task,
