Task,trials.thisRepN,trials.thisTrialN,trials.thisN,trials.thisIndex,time_response_second,response_2IFCnew,response_key2Interval_2IFCnew,signal_intensity,constant Value,response,Subject_Action,Stimulus_Present,time_response,signal_on_stimuluspos1,signal_on_stimuluspos2,first_answer,second_answer,stimulus_pos,stimulus_name_pos1,stimulus_name_pos2,random_intensity,session,participant,date,expName,
2IFCnew,0,0,0,0,-1,3,null,4,-1,Correct Rejection,0,0,0.416645499994047,False,True,2,0,2,stimulus2AFCnew_2IFCnew_2020_Mar_24_1702_1,stimulus2AFCnew_2IFCnew_2020_Mar_24_1702_2,False,1,2AFCnew,2020_Mar_24_1702,2IFCnew,
2IFCnew,1,0,1,0,-1,4,null,4,-1,Miss,0,1,0.6004553000093438,True,False,2,0,1,stimulus2AFCnew_2IFCnew_2020_Mar_24_1702_3,stimulus2AFCnew_2IFCnew_2020_Mar_24_1702_4,False,1,2AFCnew,2020_Mar_24_1702,2IFCnew,
2IFCnew,2,0,2,0,-1,4,null,4,-1,Miss,0,1,0.5353386999922805,True,False,2,0,1,stimulus2AFCnew_2IFCnew_2020_Mar_24_1702_5,stimulus2AFCnew_2IFCnew_2020_Mar_24_1702_6,False,1,2AFCnew,2020_Mar_24_1702,2IFCnew,
2IFCnew,3,0,3,0,-1,2,null,4,-1,False Alarm,1,0,0.41671959997620434,False,True,1,0,2,stimulus2AFCnew_2IFCnew_2020_Mar_24_1702_7,stimulus2AFCnew_2IFCnew_2020_Mar_24_1702_8,False,1,2AFCnew,2020_Mar_24_1702,2IFCnew,
2IFCnew,4,0,4,0,-1,0,null,4,-1,No Answer,2,2,-1,False,True,0,0,2,stimulus2AFCnew_2IFCnew_2020_Mar_24_1702_9,stimulus2AFCnew_2IFCnew_2020_Mar_24_1702_10,False,1,2AFCnew,2020_Mar_24_1702,2IFCnew,
2IFCnew,5,0,5,0,-1,3,null,4,-1,Correct Rejection,0,0,0.48438290000194684,False,True,2,0,2,stimulus2AFCnew_2IFCnew_2020_Mar_24_1702_11,stimulus2AFCnew_2IFCnew_2020_Mar_24_1702_12,False,1,2AFCnew,2020_Mar_24_1702,2IFCnew,
2IFCnew,6,0,6,0,-1,1,null,4,-1,Hit,1,1,0.5034063999773934,True,False,1,0,1,stimulus2AFCnew_2IFCnew_2020_Mar_24_1702_13,stimulus2AFCnew_2IFCnew_2020_Mar_24_1702_14,False,1,2AFCnew,2020_Mar_24_1702,2IFCnew,
2IFCnew,7,0,7,0,-1,4,null,4,-1,Miss,0,1,0.5345979999983683,True,False,2,0,1,stimulus2AFCnew_2IFCnew_2020_Mar_24_1702_15,stimulus2AFCnew_2IFCnew_2020_Mar_24_1702_16,False,1,2AFCnew,2020_Mar_24_1702,2IFCnew,
2IFCnew,8,0,8,0,0.40096810000250116,6,No,4,-1,Miss,0,1,0.533458599995356,True,False,2,0,1,stimulus2AFCnew_2IFCnew_2020_Mar_24_1702_17,stimulus2AFCnew_2IFCnew_2020_Mar_24_1702_18,False,1,2AFCnew,2020_Mar_24_1702,2IFCnew,
2IFCnew,9,0,9,0,0.7511560000129975,2,Yes,4,-1,Correct Rejection,0,0,0.7359506000066176,False,True,2,0,2,stimulus2AFCnew_2IFCnew_2020_Mar_24_1702_19,stimulus2AFCnew_2IFCnew_2020_Mar_24_1702_20,False,1,2AFCnew,2020_Mar_24_1702,2IFCnew,
2IFCnew,10,0,10,0,0.5516493999748491,1,No,4,-1,Hit,1,1,0.7853454999858513,True,False,1,0,1,stimulus2AFCnew_2IFCnew_2020_Mar_24_1702_21,stimulus2AFCnew_2IFCnew_2020_Mar_24_1702_22,False,1,2AFCnew,2020_Mar_24_1702,2IFCnew,
2IFCnew,11,0,11,0,-1,3,No,4,-1,Correct Rejection,0,0,0.5005932999774814,False,True,2,0,2,stimulus2AFCnew_2IFCnew_2020_Mar_24_1702_23,stimulus2AFCnew_2IFCnew_2020_Mar_24_1702_24,False,1,2AFCnew,2020_Mar_24_1702,2IFCnew,
2IFCnew,12,0,12,0,-1,4,No,4,-1,Miss,0,1,0.6333941000048071,True,False,2,0,1,stimulus2AFCnew_2IFCnew_2020_Mar_24_1702_25,stimulus2AFCnew_2IFCnew_2020_Mar_24_1702_26,False,1,2AFCnew,2020_Mar_24_1702,2IFCnew,
2IFCnew,13,0,13,0,-1,3,No,4,-1,Correct Rejection,0,0,0.5209669999894686,False,True,2,0,2,stimulus2AFCnew_2IFCnew_2020_Mar_24_1702_27,stimulus2AFCnew_2IFCnew_2020_Mar_24_1702_28,False,1,2AFCnew,2020_Mar_24_1702,2IFCnew,
2IFCnew,14,0,14,0,-1,3,No,4,-1,Correct Rejection,0,0,0.4856479000300169,False,True,2,0,2,stimulus2AFCnew_2IFCnew_2020_Mar_24_1702_29,stimulus2AFCnew_2IFCnew_2020_Mar_24_1702_30,False,1,2AFCnew,2020_Mar_24_1702,2IFCnew,
2IFCnew,15,0,15,0,-1,1,No,4,-1,Hit,1,1,0.5857090000063181,True,False,1,0,1,stimulus2AFCnew_2IFCnew_2020_Mar_24_1702_31,stimulus2AFCnew_2IFCnew_2020_Mar_24_1702_32,False,1,2AFCnew,2020_Mar_24_1702,2IFCnew,
2IFCnew,16,0,16,0,-1,3,No,4,-1,Correct Rejection,0,0,0.5025719999684952,False,True,2,0,2,stimulus2AFCnew_2IFCnew_2020_Mar_24_1702_33,stimulus2AFCnew_2IFCnew_2020_Mar_24_1702_34,False,1,2AFCnew,2020_Mar_24_1702,2IFCnew,
2IFCnew,17,0,17,0,-1,3,No,4,-1,Correct Rejection,0,0,0.685392800020054,False,True,2,0,2,stimulus2AFCnew_2IFCnew_2020_Mar_24_1702_35,stimulus2AFCnew_2IFCnew_2020_Mar_24_1702_36,False,1,2AFCnew,2020_Mar_24_1702,2IFCnew,
2IFCnew,18,0,18,0,-1,0,No,4,-1,No Answer,2,2,-1,True,False,0,0,1,stimulus2AFCnew_2IFCnew_2020_Mar_24_1702_37,stimulus2AFCnew_2IFCnew_2020_Mar_24_1702_38,False,1,2AFCnew,2020_Mar_24_1702,2IFCnew,
2IFCnew,19,0,19,0,0.5818386999890208,3,No,4,-1,False Alarm,1,0,0.6362109000328928,False,True,1,0,2,stimulus2AFCnew_2IFCnew_2020_Mar_24_1702_39,stimulus2AFCnew_2IFCnew_2020_Mar_24_1702_40,False,1,2AFCnew,2020_Mar_24_1702,2IFCnew,
2IFCnew,20,0,20,0,0.567945700022392,7,Yes,4,-1,Hit,1,1,0.6337740999879315,True,False,1,0,1,stimulus2AFCnew_2IFCnew_2020_Mar_24_1702_41,stimulus2AFCnew_2IFCnew_2020_Mar_24_1702_42,False,1,2AFCnew,2020_Mar_24_1702,2IFCnew,
2IFCnew,21,0,21,0,0.7012239000177942,2,Yes,4,-1,Correct Rejection,0,0,0.41964330000337213,False,True,2,0,2,stimulus2AFCnew_2IFCnew_2020_Mar_24_1702_43,stimulus2AFCnew_2IFCnew_2020_Mar_24_1702_44,False,1,2AFCnew,2020_Mar_24_1702,2IFCnew,
2IFCnew,22,0,22,0,-1,0,Yes,4,-1,No Answer,2,2,-1,True,False,0,0,1,stimulus2AFCnew_2IFCnew_2020_Mar_24_1702_45,stimulus2AFCnew_2IFCnew_2020_Mar_24_1702_46,False,1,2AFCnew,2020_Mar_24_1702,2IFCnew,
2IFCnew,23,0,23,0,0.5849949999828823,8,No,4,-1,Correct Rejection,0,0,0.6009029999841005,False,True,2,0,2,stimulus2AFCnew_2IFCnew_2020_Mar_24_1702_47,stimulus2AFCnew_2IFCnew_2020_Mar_24_1702_48,False,1,2AFCnew,2020_Mar_24_1702,2IFCnew,
2IFCnew,24,0,24,0,0.41816579998703673,5,Yes,4,-1,False Alarm,1,0,0.6680107999709435,False,True,1,0,2,stimulus2AFCnew_2IFCnew_2020_Mar_24_1702_49,stimulus2AFCnew_2IFCnew_2020_Mar_24_1702_50,False,1,2AFCnew,2020_Mar_24_1702,2IFCnew,
2IFCnew,25,0,25,0,-1,1,Yes,4,-1,Hit,1,1,0.5509789999923669,True,False,1,0,1,stimulus2AFCnew_2IFCnew_2020_Mar_24_1702_51,stimulus2AFCnew_2IFCnew_2020_Mar_24_1702_52,False,1,2AFCnew,2020_Mar_24_1702,2IFCnew,
2IFCnew,26,0,26,0,-1,3,Yes,4,-1,Correct Rejection,0,0,0.4671582000446506,False,True,2,0,2,stimulus2AFCnew_2IFCnew_2020_Mar_24_1702_53,stimulus2AFCnew_2IFCnew_2020_Mar_24_1702_54,False,1,2AFCnew,2020_Mar_24_1702,2IFCnew,
2IFCnew,27,0,27,0,0.8000942000071518,7,Yes,4,-1,Hit,1,1,0.5190545000368729,True,False,1,0,1,stimulus2AFCnew_2IFCnew_2020_Mar_24_1702_55,stimulus2AFCnew_2IFCnew_2020_Mar_24_1702_56,False,1,2AFCnew,2020_Mar_24_1702,2IFCnew,
2IFCnew,28,0,28,0,0.5364084000466391,1,No,4,-1,Hit,1,1,0.5176156000234187,True,False,1,0,1,stimulus2AFCnew_2IFCnew_2020_Mar_24_1702_57,stimulus2AFCnew_2IFCnew_2020_Mar_24_1702_58,False,1,2AFCnew,2020_Mar_24_1702,2IFCnew,
2IFCnew,29,0,29,0,-1,3,No,4,-1,Correct Rejection,0,0,0.7019032000098377,False,True,2,0,2,stimulus2AFCnew_2IFCnew_2020_Mar_24_1702_59,stimulus2AFCnew_2IFCnew_2020_Mar_24_1702_60,False,1,2AFCnew,2020_Mar_24_1702,2IFCnew,
2IFCnew,30,0,30,0,0.5827583000063896,2,Yes,4,-1,Correct Rejection,0,0,0.5666074000182562,False,True,2,0,2,stimulus2AFCnew_2IFCnew_2020_Mar_24_1702_61,stimulus2AFCnew_2IFCnew_2020_Mar_24_1702_62,False,1,2AFCnew,2020_Mar_24_1702,2IFCnew,
2IFCnew,31,0,31,0,-1,1,Yes,4,-1,Hit,1,1,0.5509414999978617,True,False,1,0,1,stimulus2AFCnew_2IFCnew_2020_Mar_24_1702_63,stimulus2AFCnew_2IFCnew_2020_Mar_24_1702_64,False,1,2AFCnew,2020_Mar_24_1702,2IFCnew,
2IFCnew,32,0,32,0,-1,1,Yes,4,-1,Hit,1,1,0.5209118999773636,True,False,1,0,1,stimulus2AFCnew_2IFCnew_2020_Mar_24_1702_65,stimulus2AFCnew_2IFCnew_2020_Mar_24_1702_66,False,1,2AFCnew,2020_Mar_24_1702,2IFCnew,
2IFCnew,33,0,33,0,-1,4,Yes,4,-1,Miss,0,1,0.42123760003596544,True,False,2,0,1,stimulus2AFCnew_2IFCnew_2020_Mar_24_1702_67,stimulus2AFCnew_2IFCnew_2020_Mar_24_1702_68,False,1,2AFCnew,2020_Mar_24_1702,2IFCnew,
2IFCnew,34,0,34,0,-1,0,Yes,4,-1,No Answer,2,2,-1,True,False,0,0,1,stimulus2AFCnew_2IFCnew_2020_Mar_24_1702_69,stimulus2AFCnew_2IFCnew_2020_Mar_24_1702_70,False,1,2AFCnew,2020_Mar_24_1702,2IFCnew,
2IFCnew,35,0,35,0,-1,1,Yes,4,-1,Hit,1,1,0.48516250000102445,True,False,1,0,1,stimulus2AFCnew_2IFCnew_2020_Mar_24_1702_71,stimulus2AFCnew_2IFCnew_2020_Mar_24_1702_72,False,1,2AFCnew,2020_Mar_24_1702,2IFCnew,
2IFCnew,36,0,36,0,-1,1,Yes,4,-1,Hit,1,1,0.5683762999833561,True,False,1,0,1,stimulus2AFCnew_2IFCnew_2020_Mar_24_1702_73,stimulus2AFCnew_2IFCnew_2020_Mar_24_1702_74,False,1,2AFCnew,2020_Mar_24_1702,2IFCnew,
2IFCnew,37,0,37,0,0.41702429996803403,6,No,4,-1,Miss,0,1,0.5182893999735825,True,False,2,0,1,stimulus2AFCnew_2IFCnew_2020_Mar_24_1702_75,stimulus2AFCnew_2IFCnew_2020_Mar_24_1702_76,False,1,2AFCnew,2020_Mar_24_1702,2IFCnew,
2IFCnew,38,0,38,0,0.8181287000188604,3,No,4,-1,False Alarm,1,0,0.6348937000147998,False,True,1,0,2,stimulus2AFCnew_2IFCnew_2020_Mar_24_1702_77,stimulus2AFCnew_2IFCnew_2020_Mar_24_1702_78,False,1,2AFCnew,2020_Mar_24_1702,2IFCnew,
2IFCnew,39,0,39,0,0.3683555999887176,5,Yes,4,-1,False Alarm,1,0,0.7338103000074625,False,True,1,0,2,stimulus2AFCnew_2IFCnew_2020_Mar_24_1702_79,stimulus2AFCnew_2IFCnew_2020_Mar_24_1702_80,False,1,2AFCnew,2020_Mar_24_1702,2IFCnew,
2IFCnew,40,0,40,0,-1,3,Yes,4,-1,Correct Rejection,0,0,0.6501750000170432,False,True,2,0,2,stimulus2AFCnew_2IFCnew_2020_Mar_24_1702_81,stimulus2AFCnew_2IFCnew_2020_Mar_24_1702_82,False,1,2AFCnew,2020_Mar_24_1702,2IFCnew,
2IFCnew,41,0,41,0,-1,1,Yes,4,-1,Hit,1,1,0.45226529997307807,True,False,1,0,1,stimulus2AFCnew_2IFCnew_2020_Mar_24_1702_83,stimulus2AFCnew_2IFCnew_2020_Mar_24_1702_84,False,1,2AFCnew,2020_Mar_24_1702,2IFCnew,
2IFCnew,42,0,42,0,0.3677665000432171,5,Yes,4,-1,False Alarm,1,0,0.5185166000155732,False,True,1,0,2,stimulus2AFCnew_2IFCnew_2020_Mar_24_1702_85,stimulus2AFCnew_2IFCnew_2020_Mar_24_1702_86,False,1,2AFCnew,2020_Mar_24_1702,2IFCnew,
2IFCnew,43,0,43,0,0.6666489000199363,1,No,4,-1,Hit,1,1,0.5005456000217237,True,False,1,0,1,stimulus2AFCnew_2IFCnew_2020_Mar_24_1702_87,stimulus2AFCnew_2IFCnew_2020_Mar_24_1702_88,False,1,2AFCnew,2020_Mar_24_1702,2IFCnew,
2IFCnew,44,0,44,0,-1,3,No,4,-1,Correct Rejection,0,0,0.6189799000276253,False,True,2,0,2,stimulus2AFCnew_2IFCnew_2020_Mar_24_1702_89,stimulus2AFCnew_2IFCnew_2020_Mar_24_1702_90,False,1,2AFCnew,2020_Mar_24_1702,2IFCnew,
2IFCnew,0,0,0,0,0.5520881999982521,6,No,2,-1,Miss,0,1,0.6000207000179216,True,False,2,0,1,stimulus2AFCnew_2IFCnew_2020_Mar_24_1702_91,stimulus2AFCnew_2IFCnew_2020_Mar_24_1702_92,False,1,2AFCnew,2020_Mar_24_1702,2IFCnew,
2IFCnew,1,0,1,0,0.5157046999665909,8,No,2,-1,Correct Rejection,0,0,0.4826416000141762,False,True,2,0,2,stimulus2AFCnew_2IFCnew_2020_Mar_24_1702_93,stimulus2AFCnew_2IFCnew_2020_Mar_24_1702_94,False,1,2AFCnew,2020_Mar_24_1702,2IFCnew,
2IFCnew,2,0,2,0,0.41822490002959967,2,Yes,2,-1,Correct Rejection,0,0,0.36867050000000745,False,True,2,0,2,stimulus2AFCnew_2IFCnew_2020_Mar_24_1702_95,stimulus2AFCnew_2IFCnew_2020_Mar_24_1702_96,False,1,2AFCnew,2020_Mar_24_1702,2IFCnew,
2IFCnew,3,0,3,0,0.5321428999886848,3,No,2,-1,False Alarm,1,0,0.6845945999957621,False,True,1,0,2,stimulus2AFCnew_2IFCnew_2020_Mar_24_1702_97,stimulus2AFCnew_2IFCnew_2020_Mar_24_1702_98,False,1,2AFCnew,2020_Mar_24_1702,2IFCnew,
2IFCnew,4,0,4,0,-1,1,No,2,-1,Hit,1,1,0.7354057000484318,True,False,1,0,1,stimulus2AFCnew_2IFCnew_2020_Mar_24_1702_99,stimulus2AFCnew_2IFCnew_2020_Mar_24_1702_100,False,1,2AFCnew,2020_Mar_24_1702,2IFCnew,
2IFCnew,5,0,5,0,-1,3,No,2,-1,Correct Rejection,0,0,0.5681822000187822,False,True,2,0,2,stimulus2AFCnew_2IFCnew_2020_Mar_24_1702_101,stimulus2AFCnew_2IFCnew_2020_Mar_24_1702_102,False,1,2AFCnew,2020_Mar_24_1702,2IFCnew,
2IFCnew,6,0,6,0,0.5318234000005759,8,No,2,-1,Correct Rejection,0,0,0.46836509997956455,False,True,2,0,2,stimulus2AFCnew_2IFCnew_2020_Mar_24_1702_103,stimulus2AFCnew_2IFCnew_2020_Mar_24_1702_104,False,1,2AFCnew,2020_Mar_24_1702,2IFCnew,
2IFCnew,7,0,7,0,0.48369870003079996,6,No,2,-1,Miss,0,1,0.3176940000266768,True,False,2,0,1,stimulus2AFCnew_2IFCnew_2020_Mar_24_1702_105,stimulus2AFCnew_2IFCnew_2020_Mar_24_1702_106,False,1,2AFCnew,2020_Mar_24_1702,2IFCnew,
2IFCnew,8,0,8,0,0.38545459997840226,6,No,2,-1,Miss,0,1,0.3185088000027463,True,False,2,0,1,stimulus2AFCnew_2IFCnew_2020_Mar_24_1702_107,stimulus2AFCnew_2IFCnew_2020_Mar_24_1702_108,False,1,2AFCnew,2020_Mar_24_1702,2IFCnew,
2IFCnew,9,0,9,0,-1,2,No,2,-1,False Alarm,1,0,0.4324178000097163,False,True,1,0,2,stimulus2AFCnew_2IFCnew_2020_Mar_24_1702_109,stimulus2AFCnew_2IFCnew_2020_Mar_24_1702_110,False,1,2AFCnew,2020_Mar_24_1702,2IFCnew,
2IFCnew,10,0,10,0,-1,3,No,2,-1,Correct Rejection,0,0,0.4834719000500627,False,True,2,0,2,stimulus2AFCnew_2IFCnew_2020_Mar_24_1702_111,stimulus2AFCnew_2IFCnew_2020_Mar_24_1702_112,False,1,2AFCnew,2020_Mar_24_1702,2IFCnew,
2IFCnew,11,0,11,0,-1,3,No,2,-1,Correct Rejection,0,0,0.4535036999732256,False,True,2,0,2,stimulus2AFCnew_2IFCnew_2020_Mar_24_1702_113,stimulus2AFCnew_2IFCnew_2020_Mar_24_1702_114,False,1,2AFCnew,2020_Mar_24_1702,2IFCnew,
2IFCnew,12,0,12,0,-1,4,No,2,-1,Miss,0,1,0.2669697000528686,True,False,2,0,1,stimulus2AFCnew_2IFCnew_2020_Mar_24_1702_115,stimulus2AFCnew_2IFCnew_2020_Mar_24_1702_116,False,1,2AFCnew,2020_Mar_24_1702,2IFCnew,
2IFCnew,13,0,13,0,0.45131620002212003,6,No,2,-1,Miss,0,1,0.7346218000166118,True,False,2,0,1,stimulus2AFCnew_2IFCnew_2020_Mar_24_1702_117,stimulus2AFCnew_2IFCnew_2020_Mar_24_1702_118,False,1,2AFCnew,2020_Mar_24_1702,2IFCnew,
2IFCnew,14,0,14,0,-1,0,No,2,-1,No Answer,2,2,-1,True,False,0,0,1,stimulus2AFCnew_2IFCnew_2020_Mar_24_1702_119,stimulus2AFCnew_2IFCnew_2020_Mar_24_1702_120,False,1,2AFCnew,2020_Mar_24_1702,2IFCnew,
2IFCnew,15,0,15,0,0.6201737999799661,2,Yes,2,-1,Correct Rejection,0,0,0.60097810003208,False,True,2,0,2,stimulus2AFCnew_2IFCnew_2020_Mar_24_1702_121,stimulus2AFCnew_2IFCnew_2020_Mar_24_1702_122,False,1,2AFCnew,2020_Mar_24_1702,2IFCnew,
2IFCnew,16,0,16,0,0.21971599996322766,6,No,2,-1,Miss,0,1,0.451420400000643,True,False,2,0,1,stimulus2AFCnew_2IFCnew_2020_Mar_24_1702_123,stimulus2AFCnew_2IFCnew_2020_Mar_24_1702_124,False,1,2AFCnew,2020_Mar_24_1702,2IFCnew,
2IFCnew,17,0,17,0,-1,1,No,2,-1,Hit,1,1,0.5832173000089824,True,False,1,0,1,stimulus2AFCnew_2IFCnew_2020_Mar_24_1702_125,stimulus2AFCnew_2IFCnew_2020_Mar_24_1702_126,False,1,2AFCnew,2020_Mar_24_1702,2IFCnew,
2IFCnew,18,0,18,0,-1,4,No,2,-1,Miss,0,1,0.4842908999999054,True,False,2,0,1,stimulus2AFCnew_2IFCnew_2020_Mar_24_1702_127,stimulus2AFCnew_2IFCnew_2020_Mar_24_1702_128,False,1,2AFCnew,2020_Mar_24_1702,2IFCnew,
2IFCnew,19,0,19,0,0.5682161999866366,6,No,2,-1,Miss,0,1,0.5018180999904871,True,False,2,0,1,stimulus2AFCnew_2IFCnew_2020_Mar_24_1702_129,stimulus2AFCnew_2IFCnew_2020_Mar_24_1702_130,False,1,2AFCnew,2020_Mar_24_1702,2IFCnew,
2IFCnew,20,0,20,0,-1,0,No,2,-1,No Answer,2,2,-1,False,True,0,0,2,stimulus2AFCnew_2IFCnew_2020_Mar_24_1702_131,stimulus2AFCnew_2IFCnew_2020_Mar_24_1702_132,False,1,2AFCnew,2020_Mar_24_1702,2IFCnew,
2IFCnew,21,0,21,0,0.4181752000004053,3,No,2,-1,False Alarm,1,0,0.5180239999899641,False,True,1,0,2,stimulus2AFCnew_2IFCnew_2020_Mar_24_1702_133,stimulus2AFCnew_2IFCnew_2020_Mar_24_1702_134,False,1,2AFCnew,2020_Mar_24_1702,2IFCnew,
2IFCnew,22,0,22,0,-1,3,No,2,-1,Correct Rejection,0,0,0.5670002999831922,False,True,2,0,2,stimulus2AFCnew_2IFCnew_2020_Mar_24_1702_135,stimulus2AFCnew_2IFCnew_2020_Mar_24_1702_136,False,1,2AFCnew,2020_Mar_24_1702,2IFCnew,
2IFCnew,23,0,23,0,-1,3,No,2,-1,Correct Rejection,0,0,0.5367528999922797,False,True,2,0,2,stimulus2AFCnew_2IFCnew_2020_Mar_24_1702_137,stimulus2AFCnew_2IFCnew_2020_Mar_24_1702_138,False,1,2AFCnew,2020_Mar_24_1702,2IFCnew,
2IFCnew,24,0,24,0,0.5677244000253268,3,No,2,-1,False Alarm,1,0,0.5839847999741323,False,True,1,0,2,stimulus2AFCnew_2IFCnew_2020_Mar_24_1702_139,stimulus2AFCnew_2IFCnew_2020_Mar_24_1702_140,False,1,2AFCnew,2020_Mar_24_1702,2IFCnew,
2IFCnew,25,0,25,0,0.6855169999762438,8,No,2,-1,Correct Rejection,0,0,0.5663840000052005,False,True,2,0,2,stimulus2AFCnew_2IFCnew_2020_Mar_24_1702_141,stimulus2AFCnew_2IFCnew_2020_Mar_24_1702_142,False,1,2AFCnew,2020_Mar_24_1702,2IFCnew,
2IFCnew,26,0,26,0,-1,0,No,2,-1,No Answer,2,2,-1,False,True,0,0,2,stimulus2AFCnew_2IFCnew_2020_Mar_24_1702_143,stimulus2AFCnew_2IFCnew_2020_Mar_24_1702_144,False,1,2AFCnew,2020_Mar_24_1702,2IFCnew,
2IFCnew,27,0,27,0,0.7857035999768414,6,No,2,-1,Miss,0,1,0.5353881999617442,True,False,2,0,1,stimulus2AFCnew_2IFCnew_2020_Mar_24_1702_145,stimulus2AFCnew_2IFCnew_2020_Mar_24_1702_146,False,1,2AFCnew,2020_Mar_24_1702,2IFCnew,
2IFCnew,28,0,28,0,-1,0,No,2,-1,No Answer,2,2,-1,True,False,0,0,1,stimulus2AFCnew_2IFCnew_2020_Mar_24_1702_147,stimulus2AFCnew_2IFCnew_2020_Mar_24_1702_148,False,1,2AFCnew,2020_Mar_24_1702,2IFCnew,
2IFCnew,29,0,29,0,0.4528618000331335,3,No,2,-1,False Alarm,1,0,0.6026285000261851,False,True,1,0,2,stimulus2AFCnew_2IFCnew_2020_Mar_24_1702_149,stimulus2AFCnew_2IFCnew_2020_Mar_24_1702_150,False,1,2AFCnew,2020_Mar_24_1702,2IFCnew,
2IFCnew,30,0,30,0,-1,3,No,2,-1,Correct Rejection,0,0,0.784370300010778,False,True,2,0,2,stimulus2AFCnew_2IFCnew_2020_Mar_24_1702_151,stimulus2AFCnew_2IFCnew_2020_Mar_24_1702_152,False,1,2AFCnew,2020_Mar_24_1702,2IFCnew,
2IFCnew,31,0,31,0,0.33411510003497824,8,No,2,-1,Correct Rejection,0,0,0.519103400001768,False,True,2,0,2,stimulus2AFCnew_2IFCnew_2020_Mar_24_1702_153,stimulus2AFCnew_2IFCnew_2020_Mar_24_1702_154,False,1,2AFCnew,2020_Mar_24_1702,2IFCnew,
2IFCnew,32,0,32,0,0.46825299999909475,5,Yes,2,-1,False Alarm,1,0,0.33438949997071177,False,True,1,0,2,stimulus2AFCnew_2IFCnew_2020_Mar_24_1702_155,stimulus2AFCnew_2IFCnew_2020_Mar_24_1702_156,False,1,2AFCnew,2020_Mar_24_1702,2IFCnew,
2IFCnew,33,0,33,0,-1,0,Yes,2,-1,No Answer,2,2,-1,False,True,0,0,2,stimulus2AFCnew_2IFCnew_2020_Mar_24_1702_157,stimulus2AFCnew_2IFCnew_2020_Mar_24_1702_158,False,1,2AFCnew,2020_Mar_24_1702,2IFCnew,
2IFCnew,34,0,34,0,0.5680194000015035,6,No,2,-1,Miss,0,1,0.38396190002094954,True,False,2,0,1,stimulus2AFCnew_2IFCnew_2020_Mar_24_1702_159,stimulus2AFCnew_2IFCnew_2020_Mar_24_1702_160,False,1,2AFCnew,2020_Mar_24_1702,2IFCnew,
2IFCnew,35,0,35,0,0.31741740001598373,6,No,2,-1,Miss,0,1,0.472019899985753,True,False,2,0,1,stimulus2AFCnew_2IFCnew_2020_Mar_24_1702_161,stimulus2AFCnew_2IFCnew_2020_Mar_24_1702_162,False,1,2AFCnew,2020_Mar_24_1702,2IFCnew,
2IFCnew,36,0,36,0,0.3851284999982454,8,No,2,-1,Correct Rejection,0,0,0.5512208999716677,False,True,2,0,2,stimulus2AFCnew_2IFCnew_2020_Mar_24_1702_163,stimulus2AFCnew_2IFCnew_2020_Mar_24_1702_164,False,1,2AFCnew,2020_Mar_24_1702,2IFCnew,
2IFCnew,37,0,37,0,-1,4,No,2,-1,Miss,0,1,0.7671814999775961,True,False,2,0,1,stimulus2AFCnew_2IFCnew_2020_Mar_24_1702_165,stimulus2AFCnew_2IFCnew_2020_Mar_24_1702_166,False,1,2AFCnew,2020_Mar_24_1702,2IFCnew,
2IFCnew,38,0,38,0,0.18395609996514395,4,Yes,2,-1,Miss,0,1,0.2820182999712415,True,False,2,0,1,stimulus2AFCnew_2IFCnew_2020_Mar_24_1702_167,stimulus2AFCnew_2IFCnew_2020_Mar_24_1702_168,False,1,2AFCnew,2020_Mar_24_1702,2IFCnew,
2IFCnew,39,0,39,0,0.26788460003444925,3,No,2,-1,False Alarm,1,0,0.30177089996868744,False,True,1,0,2,stimulus2AFCnew_2IFCnew_2020_Mar_24_1702_169,stimulus2AFCnew_2IFCnew_2020_Mar_24_1702_170,False,1,2AFCnew,2020_Mar_24_1702,2IFCnew,
2IFCnew,40,0,40,0,0.8841527999611571,8,No,2,-1,Correct Rejection,0,0,0.2511696000001393,False,True,2,0,2,stimulus2AFCnew_2IFCnew_2020_Mar_24_1702_171,stimulus2AFCnew_2IFCnew_2020_Mar_24_1702_172,False,1,2AFCnew,2020_Mar_24_1702,2IFCnew,
2IFCnew,41,0,41,0,0.06747389998054132,6,No,2,-1,Miss,0,1,0.3490347999613732,True,False,2,0,1,stimulus2AFCnew_2IFCnew_2020_Mar_24_1702_173,stimulus2AFCnew_2IFCnew_2020_Mar_24_1702_174,False,1,2AFCnew,2020_Mar_24_1702,2IFCnew,
2IFCnew,42,0,42,0,0.31752849998883903,8,No,2,-1,Correct Rejection,0,0,0.7849778999807313,False,True,2,0,2,stimulus2AFCnew_2IFCnew_2020_Mar_24_1702_175,stimulus2AFCnew_2IFCnew_2020_Mar_24_1702_176,False,1,2AFCnew,2020_Mar_24_1702,2IFCnew,
2IFCnew,43,0,43,0,-1,2,No,2,-1,False Alarm,1,0,0.532694099994842,False,True,1,0,2,stimulus2AFCnew_2IFCnew_2020_Mar_24_1702_177,stimulus2AFCnew_2IFCnew_2020_Mar_24_1702_178,False,1,2AFCnew,2020_Mar_24_1702,2IFCnew,
2IFCnew,44,0,44,0,-1,1,No,2,-1,Hit,1,1,0.45175489998655394,True,False,1,0,1,stimulus2AFCnew_2IFCnew_2020_Mar_24_1702_179,stimulus2AFCnew_2IFCnew_2020_Mar_24_1702_180,False,1,2AFCnew,2020_Mar_24_1702,2IFCnew,
2IFCnew,0,0,0,0,-1,0,No,11,-1,No Answer,2,2,-1,True,False,0,0,1,stimulus2AFCnew_2IFCnew_2020_Mar_24_1702_181,stimulus2AFCnew_2IFCnew_2020_Mar_24_1702_182,False,1,2AFCnew,2020_Mar_24_1702,2IFCnew,
2IFCnew,1,0,1,0,0.6005328000173904,8,No,11,-1,Correct Rejection,0,0,0.6514519999618642,False,True,2,0,2,stimulus2AFCnew_2IFCnew_2020_Mar_24_1702_183,stimulus2AFCnew_2IFCnew_2020_Mar_24_1702_184,False,1,2AFCnew,2020_Mar_24_1702,2IFCnew,
2IFCnew,2,0,2,0,-1,3,No,11,-1,Correct Rejection,0,0,0.664595799986273,False,True,2,0,2,stimulus2AFCnew_2IFCnew_2020_Mar_24_1702_185,stimulus2AFCnew_2IFCnew_2020_Mar_24_1702_186,False,1,2AFCnew,2020_Mar_24_1702,2IFCnew,
2IFCnew,3,0,3,0,-1,1,No,11,-1,Hit,1,1,0.4515892000054009,True,False,1,0,1,stimulus2AFCnew_2IFCnew_2020_Mar_24_1702_187,stimulus2AFCnew_2IFCnew_2020_Mar_24_1702_188,False,1,2AFCnew,2020_Mar_24_1702,2IFCnew,
2IFCnew,4,0,4,0,-1,1,No,11,-1,Hit,1,1,0.3869587000226602,True,False,1,0,1,stimulus2AFCnew_2IFCnew_2020_Mar_24_1702_189,stimulus2AFCnew_2IFCnew_2020_Mar_24_1702_190,False,1,2AFCnew,2020_Mar_24_1702,2IFCnew,
2IFCnew,5,0,5,0,-1,3,No,11,-1,Correct Rejection,0,0,0.399037400027737,False,True,2,0,2,stimulus2AFCnew_2IFCnew_2020_Mar_24_1702_191,stimulus2AFCnew_2IFCnew_2020_Mar_24_1702_192,False,1,2AFCnew,2020_Mar_24_1702,2IFCnew,
2IFCnew,6,0,6,0,-1,3,No,11,-1,Correct Rejection,0,0,0.5853410999989137,False,True,2,0,2,stimulus2AFCnew_2IFCnew_2020_Mar_24_1702_193,stimulus2AFCnew_2IFCnew_2020_Mar_24_1702_194,False,1,2AFCnew,2020_Mar_24_1702,2IFCnew,
2IFCnew,7,0,7,0,-1,0,No,11,-1,No Answer,2,2,-1,True,False,0,0,1,stimulus2AFCnew_2IFCnew_2020_Mar_24_1702_195,stimulus2AFCnew_2IFCnew_2020_Mar_24_1702_196,False,1,2AFCnew,2020_Mar_24_1702,2IFCnew,
2IFCnew,8,0,8,0,0.6842777000274509,2,Yes,11,-1,Correct Rejection,0,0,0.3849542000098154,False,True,2,0,2,stimulus2AFCnew_2IFCnew_2020_Mar_24_1702_197,stimulus2AFCnew_2IFCnew_2020_Mar_24_1702_198,False,1,2AFCnew,2020_Mar_24_1702,2IFCnew,
2IFCnew,9,0,9,0,0.8516200999729335,1,No,11,-1,Hit,1,1,0.6855945999850519,True,False,1,0,1,stimulus2AFCnew_2IFCnew_2020_Mar_24_1702_199,stimulus2AFCnew_2IFCnew_2020_Mar_24_1702_200,False,1,2AFCnew,2020_Mar_24_1702,2IFCnew,
2IFCnew,10,0,10,0,0.4833159999689087,2,Yes,11,-1,Correct Rejection,0,0,0.5687636000220664,False,True,2,0,2,stimulus2AFCnew_2IFCnew_2020_Mar_24_1702_201,stimulus2AFCnew_2IFCnew_2020_Mar_24_1702_202,False,1,2AFCnew,2020_Mar_24_1702,2IFCnew,
2IFCnew,11,0,11,0,0.4515893000061624,1,No,11,-1,Hit,1,1,0.5194765999913216,True,False,1,0,1,stimulus2AFCnew_2IFCnew_2020_Mar_24_1702_203,stimulus2AFCnew_2IFCnew_2020_Mar_24_1702_204,False,1,2AFCnew,2020_Mar_24_1702,2IFCnew,
2IFCnew,12,0,12,0,0.5856963000260293,1,No,11,-1,Hit,1,1,0.4183173999772407,True,False,1,0,1,stimulus2AFCnew_2IFCnew_2020_Mar_24_1702_205,stimulus2AFCnew_2IFCnew_2020_Mar_24_1702_206,False,1,2AFCnew,2020_Mar_24_1702,2IFCnew,
2IFCnew,13,0,13,0,-1,1,No,11,-1,Hit,1,1,0.39972749998560175,True,False,1,0,1,stimulus2AFCnew_2IFCnew_2020_Mar_24_1702_207,stimulus2AFCnew_2IFCnew_2020_Mar_24_1702_208,False,1,2AFCnew,2020_Mar_24_1702,2IFCnew,
2IFCnew,14,0,14,0,0.45155920000979677,2,Yes,11,-1,Correct Rejection,0,0,0.4510574999731034,False,True,2,0,2,stimulus2AFCnew_2IFCnew_2020_Mar_24_1702_209,stimulus2AFCnew_2IFCnew_2020_Mar_24_1702_210,False,1,2AFCnew,2020_Mar_24_1702,2IFCnew,
2IFCnew,15,0,15,0,0.7842341000214219,2,Yes,11,-1,Correct Rejection,0,0,0.7174642999889329,False,True,2,0,2,stimulus2AFCnew_2IFCnew_2020_Mar_24_1702_211,stimulus2AFCnew_2IFCnew_2020_Mar_24_1702_212,False,1,2AFCnew,2020_Mar_24_1702,2IFCnew,
2IFCnew,16,0,16,0,0.40063319995533675,2,Yes,11,-1,Correct Rejection,0,0,0.5509107999969274,False,True,2,0,2,stimulus2AFCnew_2IFCnew_2020_Mar_24_1702_213,stimulus2AFCnew_2IFCnew_2020_Mar_24_1702_214,False,1,2AFCnew,2020_Mar_24_1702,2IFCnew,
2IFCnew,17,0,17,0,0.3693065000115894,2,Yes,11,-1,Correct Rejection,0,0,0.4865111000253819,False,True,2,0,2,stimulus2AFCnew_2IFCnew_2020_Mar_24_1702_215,stimulus2AFCnew_2IFCnew_2020_Mar_24_1702_216,False,1,2AFCnew,2020_Mar_24_1702,2IFCnew,
2IFCnew,18,0,18,0,0.2848725999938324,1,No,11,-1,Hit,1,1,0.5178159000352025,True,False,1,0,1,stimulus2AFCnew_2IFCnew_2020_Mar_24_1702_217,stimulus2AFCnew_2IFCnew_2020_Mar_24_1702_218,False,1,2AFCnew,2020_Mar_24_1702,2IFCnew,
2IFCnew,19,0,19,0,0.5511465999879874,2,Yes,11,-1,Correct Rejection,0,0,0.48272829997586086,False,True,2,0,2,stimulus2AFCnew_2IFCnew_2020_Mar_24_1702_219,stimulus2AFCnew_2IFCnew_2020_Mar_24_1702_220,False,1,2AFCnew,2020_Mar_24_1702,2IFCnew,
2IFCnew,20,0,20,0,0.5677760999533348,6,No,11,-1,Miss,0,1,0.36836419999599457,True,False,2,0,1,stimulus2AFCnew_2IFCnew_2020_Mar_24_1702_221,stimulus2AFCnew_2IFCnew_2020_Mar_24_1702_222,False,1,2AFCnew,2020_Mar_24_1702,2IFCnew,
2IFCnew,21,0,21,0,0.4669065000489354,1,No,11,-1,Hit,1,1,0.4332527000224218,True,False,1,0,1,stimulus2AFCnew_2IFCnew_2020_Mar_24_1702_223,stimulus2AFCnew_2IFCnew_2020_Mar_24_1702_224,False,1,2AFCnew,2020_Mar_24_1702,2IFCnew,
2IFCnew,22,0,22,0,0.4356477999826893,1,No,11,-1,Hit,1,1,0.46783290000166744,True,False,1,0,1,stimulus2AFCnew_2IFCnew_2020_Mar_24_1702_225,stimulus2AFCnew_2IFCnew_2020_Mar_24_1702_226,False,1,2AFCnew,2020_Mar_24_1702,2IFCnew,
2IFCnew,23,0,23,0,0.4340309000108391,2,Yes,11,-1,Correct Rejection,0,0,0.486129000026267,False,True,2,0,2,stimulus2AFCnew_2IFCnew_2020_Mar_24_1702_227,stimulus2AFCnew_2IFCnew_2020_Mar_24_1702_228,False,1,2AFCnew,2020_Mar_24_1702,2IFCnew,
2IFCnew,24,0,24,0,-1,1,Yes,11,-1,Hit,1,1,0.4535792999668047,True,False,1,0,1,stimulus2AFCnew_2IFCnew_2020_Mar_24_1702_229,stimulus2AFCnew_2IFCnew_2020_Mar_24_1702_230,False,1,2AFCnew,2020_Mar_24_1702,2IFCnew,
2IFCnew,25,0,25,0,-1,1,Yes,11,-1,Hit,1,1,0.43718360003549606,True,False,1,0,1,stimulus2AFCnew_2IFCnew_2020_Mar_24_1702_231,stimulus2AFCnew_2IFCnew_2020_Mar_24_1702_232,False,1,2AFCnew,2020_Mar_24_1702,2IFCnew,
2IFCnew,26,0,26,0,-1,3,Yes,11,-1,Correct Rejection,0,0,0.4856423999881372,False,True,2,0,2,stimulus2AFCnew_2IFCnew_2020_Mar_24_1702_233,stimulus2AFCnew_2IFCnew_2020_Mar_24_1702_234,False,1,2AFCnew,2020_Mar_24_1702,2IFCnew,
2IFCnew,27,0,27,0,-1,3,Yes,11,-1,Correct Rejection,0,0,0.5173536000074819,False,True,2,0,2,stimulus2AFCnew_2IFCnew_2020_Mar_24_1702_235,stimulus2AFCnew_2IFCnew_2020_Mar_24_1702_236,False,1,2AFCnew,2020_Mar_24_1702,2IFCnew,
2IFCnew,28,0,28,0,-1,3,Yes,11,-1,Correct Rejection,0,0,0.7161301000160165,False,True,2,0,2,stimulus2AFCnew_2IFCnew_2020_Mar_24_1702_237,stimulus2AFCnew_2IFCnew_2020_Mar_24_1702_238,False,1,2AFCnew,2020_Mar_24_1702,2IFCnew,
2IFCnew,29,0,29,0,-1,3,Yes,11,-1,Correct Rejection,0,0,0.5856147999875247,False,True,2,0,2,stimulus2AFCnew_2IFCnew_2020_Mar_24_1702_239,stimulus2AFCnew_2IFCnew_2020_Mar_24_1702_240,False,1,2AFCnew,2020_Mar_24_1702,2IFCnew,
2IFCnew,30,0,30,0,0.034349999972619116,4,Yes,11,-1,Miss,0,1,0.5516145000001416,True,False,2,0,1,stimulus2AFCnew_2IFCnew_2020_Mar_24_1702_241,stimulus2AFCnew_2IFCnew_2020_Mar_24_1702_242,False,1,2AFCnew,2020_Mar_24_1702,2IFCnew,
2IFCnew,31,0,31,0,0.6177901999908499,2,Yes,11,-1,Correct Rejection,0,0,0.8849304000032134,False,True,2,0,2,stimulus2AFCnew_2IFCnew_2020_Mar_24_1702_243,stimulus2AFCnew_2IFCnew_2020_Mar_24_1702_244,False,1,2AFCnew,2020_Mar_24_1702,2IFCnew,
2IFCnew,32,0,32,0,-1,1,Yes,11,-1,Hit,1,1,0.5521021999884397,True,False,1,0,1,stimulus2AFCnew_2IFCnew_2020_Mar_24_1702_245,stimulus2AFCnew_2IFCnew_2020_Mar_24_1702_246,False,1,2AFCnew,2020_Mar_24_1702,2IFCnew,
2IFCnew,33,0,33,0,-1,3,Yes,11,-1,Correct Rejection,0,0,0.5011676999856718,False,True,2,0,2,stimulus2AFCnew_2IFCnew_2020_Mar_24_1702_247,stimulus2AFCnew_2IFCnew_2020_Mar_24_1702_248,False,1,2AFCnew,2020_Mar_24_1702,2IFCnew,
2IFCnew,34,0,34,0,-1,1,Yes,11,-1,Hit,1,1,0.4994324999861419,True,False,1,0,1,stimulus2AFCnew_2IFCnew_2020_Mar_24_1702_249,stimulus2AFCnew_2IFCnew_2020_Mar_24_1702_250,False,1,2AFCnew,2020_Mar_24_1702,2IFCnew,
2IFCnew,35,0,35,0,-1,3,Yes,11,-1,Correct Rejection,0,0,0.4695541000110097,False,True,2,0,2,stimulus2AFCnew_2IFCnew_2020_Mar_24_1702_251,stimulus2AFCnew_2IFCnew_2020_Mar_24_1702_252,False,1,2AFCnew,2020_Mar_24_1702,2IFCnew,
2IFCnew,36,0,36,0,-1,3,Yes,11,-1,Correct Rejection,0,0,0.4149021999910474,False,True,2,0,2,stimulus2AFCnew_2IFCnew_2020_Mar_24_1702_253,stimulus2AFCnew_2IFCnew_2020_Mar_24_1702_254,False,1,2AFCnew,2020_Mar_24_1702,2IFCnew,
2IFCnew,37,0,37,0,-1,3,Yes,11,-1,Correct Rejection,0,0,0.5334703999687918,False,True,2,0,2,stimulus2AFCnew_2IFCnew_2020_Mar_24_1702_255,stimulus2AFCnew_2IFCnew_2020_Mar_24_1702_256,False,1,2AFCnew,2020_Mar_24_1702,2IFCnew,
2IFCnew,38,0,38,0,-1,3,Yes,11,-1,Correct Rejection,0,0,0.3330285999691114,False,True,2,0,2,stimulus2AFCnew_2IFCnew_2020_Mar_24_1702_257,stimulus2AFCnew_2IFCnew_2020_Mar_24_1702_258,False,1,2AFCnew,2020_Mar_24_1702,2IFCnew,
2IFCnew,39,0,39,0,-1,1,Yes,11,-1,Hit,1,1,0.467752400028985,True,False,1,0,1,stimulus2AFCnew_2IFCnew_2020_Mar_24_1702_259,stimulus2AFCnew_2IFCnew_2020_Mar_24_1702_260,False,1,2AFCnew,2020_Mar_24_1702,2IFCnew,
2IFCnew,40,0,40,0,-1,3,Yes,11,-1,Correct Rejection,0,0,0.4004471999942325,False,True,2,0,2,stimulus2AFCnew_2IFCnew_2020_Mar_24_1702_261,stimulus2AFCnew_2IFCnew_2020_Mar_24_1702_262,False,1,2AFCnew,2020_Mar_24_1702,2IFCnew,
2IFCnew,41,0,41,0,-1,4,Yes,11,-1,Miss,0,1,0.2688362000044435,True,False,2,0,1,stimulus2AFCnew_2IFCnew_2020_Mar_24_1702_263,stimulus2AFCnew_2IFCnew_2020_Mar_24_1702_264,False,1,2AFCnew,2020_Mar_24_1702,2IFCnew,
2IFCnew,42,0,42,0,-1,3,Yes,11,-1,Correct Rejection,0,0,0.3517790000187233,False,True,2,0,2,stimulus2AFCnew_2IFCnew_2020_Mar_24_1702_265,stimulus2AFCnew_2IFCnew_2020_Mar_24_1702_266,False,1,2AFCnew,2020_Mar_24_1702,2IFCnew,
2IFCnew,43,0,43,0,-1,1,Yes,11,-1,Hit,1,1,0.32030280004255474,True,False,1,0,1,stimulus2AFCnew_2IFCnew_2020_Mar_24_1702_267,stimulus2AFCnew_2IFCnew_2020_Mar_24_1702_268,False,1,2AFCnew,2020_Mar_24_1702,2IFCnew,
2IFCnew,44,0,44,0,-1,3,Yes,11,-1,Correct Rejection,0,0,0.5154998000361957,False,True,2,0,2,stimulus2AFCnew_2IFCnew_2020_Mar_24_1702_269,stimulus2AFCnew_2IFCnew_2020_Mar_24_1702_270,False,1,2AFCnew,2020_Mar_24_1702,2IFCnew,
2IFCnew,0,0,0,0,0.7348691999795847,8,No,0,-1,Correct Rejection,0,0,0.7663674000068568,False,True,2,0,2,stimulus2AFCnew_2IFCnew_2020_Mar_24_1702_271,stimulus2AFCnew_2IFCnew_2020_Mar_24_1702_272,False,1,2AFCnew,2020_Mar_24_1702,2IFCnew,
2IFCnew,1,0,1,0,0.767649799992796,6,No,0,-1,Miss,0,1,0.5171650999691337,True,False,2,0,1,stimulus2AFCnew_2IFCnew_2020_Mar_24_1702_273,stimulus2AFCnew_2IFCnew_2020_Mar_24_1702_274,False,1,2AFCnew,2020_Mar_24_1702,2IFCnew,
2IFCnew,2,0,2,0,0.4692009999998845,8,No,0,-1,Correct Rejection,0,0,0.41581660002702847,False,True,2,0,2,stimulus2AFCnew_2IFCnew_2020_Mar_24_1702_275,stimulus2AFCnew_2IFCnew_2020_Mar_24_1702_276,False,1,2AFCnew,2020_Mar_24_1702,2IFCnew,
2IFCnew,3,0,3,0,0.4675744000123814,2,Yes,0,-1,Correct Rejection,0,0,0.2673280999879353,False,True,2,0,2,stimulus2AFCnew_2IFCnew_2020_Mar_24_1702_277,stimulus2AFCnew_2IFCnew_2020_Mar_24_1702_278,False,1,2AFCnew,2020_Mar_24_1702,2IFCnew,
2IFCnew,4,0,4,0,-1,4,Yes,0,-1,Miss,0,1,0.40314010001020506,True,False,2,0,1,stimulus2AFCnew_2IFCnew_2020_Mar_24_1702_279,stimulus2AFCnew_2IFCnew_2020_Mar_24_1702_280,False,1,2AFCnew,2020_Mar_24_1702,2IFCnew,
2IFCnew,5,0,5,0,0.26733950001653284,1,No,0,-1,Hit,1,1,0.5014333999715745,True,False,1,0,1,stimulus2AFCnew_2IFCnew_2020_Mar_24_1702_281,stimulus2AFCnew_2IFCnew_2020_Mar_24_1702_282,False,1,2AFCnew,2020_Mar_24_1702,2IFCnew,
2IFCnew,6,0,6,0,-1,3,No,0,-1,Correct Rejection,0,0,0.500427299994044,False,True,2,0,2,stimulus2AFCnew_2IFCnew_2020_Mar_24_1702_283,stimulus2AFCnew_2IFCnew_2020_Mar_24_1702_284,False,1,2AFCnew,2020_Mar_24_1702,2IFCnew,
2IFCnew,7,0,7,0,0.6513799999956973,8,No,0,-1,Correct Rejection,0,0,0.583173600025475,False,True,2,0,2,stimulus2AFCnew_2IFCnew_2020_Mar_24_1702_285,stimulus2AFCnew_2IFCnew_2020_Mar_24_1702_286,False,1,2AFCnew,2020_Mar_24_1702,2IFCnew,
2IFCnew,8,0,8,0,0.3338649000506848,6,No,0,-1,Miss,0,1,0.30166219995589927,True,False,2,0,1,stimulus2AFCnew_2IFCnew_2020_Mar_24_1702_287,stimulus2AFCnew_2IFCnew_2020_Mar_24_1702_288,False,1,2AFCnew,2020_Mar_24_1702,2IFCnew,
2IFCnew,9,0,9,0,-1,0,No,0,-1,No Answer,2,2,-1,False,True,0,0,2,stimulus2AFCnew_2IFCnew_2020_Mar_24_1702_289,stimulus2AFCnew_2IFCnew_2020_Mar_24_1702_290,False,1,2AFCnew,2020_Mar_24_1702,2IFCnew,
2IFCnew,10,0,10,0,-1,4,No,0,-1,Miss,0,1,0.30186060001142323,True,False,2,0,1,stimulus2AFCnew_2IFCnew_2020_Mar_24_1702_291,stimulus2AFCnew_2IFCnew_2020_Mar_24_1702_292,False,1,2AFCnew,2020_Mar_24_1702,2IFCnew,
2IFCnew,11,0,11,0,0.5017965999431908,6,No,0,-1,Miss,0,1,0.21690329996636137,True,False,2,0,1,stimulus2AFCnew_2IFCnew_2020_Mar_24_1702_293,stimulus2AFCnew_2IFCnew_2020_Mar_24_1702_294,False,1,2AFCnew,2020_Mar_24_1702,2IFCnew,
2IFCnew,12,0,12,0,-1,4,No,0,-1,Miss,0,1,0.25139290001243353,True,False,2,0,1,stimulus2AFCnew_2IFCnew_2020_Mar_24_1702_295,stimulus2AFCnew_2IFCnew_2020_Mar_24_1702_296,False,1,2AFCnew,2020_Mar_24_1702,2IFCnew,
2IFCnew,13,0,13,0,0.21744320000289008,8,No,0,-1,Correct Rejection,0,0,0.218546400021296,False,True,2,0,2,stimulus2AFCnew_2IFCnew_2020_Mar_24_1702_297,stimulus2AFCnew_2IFCnew_2020_Mar_24_1702_298,False,1,2AFCnew,2020_Mar_24_1702,2IFCnew,
2IFCnew,14,0,14,0,-1,3,No,0,-1,Correct Rejection,0,0,0.30217469995841384,False,True,2,0,2,stimulus2AFCnew_2IFCnew_2020_Mar_24_1702_299,stimulus2AFCnew_2IFCnew_2020_Mar_24_1702_300,False,1,2AFCnew,2020_Mar_24_1702,2IFCnew,
2IFCnew,15,0,15,0,-1,3,No,0,-1,Correct Rejection,0,0,0.3328845000360161,False,True,2,0,2,stimulus2AFCnew_2IFCnew_2020_Mar_24_1702_301,stimulus2AFCnew_2IFCnew_2020_Mar_24_1702_302,False,1,2AFCnew,2020_Mar_24_1702,2IFCnew,
2IFCnew,16,0,16,0,0.3840745000052266,6,No,0,-1,Miss,0,1,0.2677057000109926,True,False,2,0,1,stimulus2AFCnew_2IFCnew_2020_Mar_24_1702_303,stimulus2AFCnew_2IFCnew_2020_Mar_24_1702_304,False,1,2AFCnew,2020_Mar_24_1702,2IFCnew,
2IFCnew,17,0,17,0,0.8851912999525666,6,No,0,-1,Miss,0,1,0.41746140003670007,True,False,2,0,1,stimulus2AFCnew_2IFCnew_2020_Mar_24_1702_305,stimulus2AFCnew_2IFCnew_2020_Mar_24_1702_306,False,1,2AFCnew,2020_Mar_24_1702,2IFCnew,
2IFCnew,18,0,18,0,-1,0,No,0,-1,No Answer,2,2,-1,False,True,0,0,2,stimulus2AFCnew_2IFCnew_2020_Mar_24_1702_307,stimulus2AFCnew_2IFCnew_2020_Mar_24_1702_308,False,1,2AFCnew,2020_Mar_24_1702,2IFCnew,
2IFCnew,19,0,19,0,0.4511583999847062,8,No,0,-1,Correct Rejection,0,0,0.6180951000424102,False,True,2,0,2,stimulus2AFCnew_2IFCnew_2020_Mar_24_1702_309,stimulus2AFCnew_2IFCnew_2020_Mar_24_1702_310,False,1,2AFCnew,2020_Mar_24_1702,2IFCnew,
2IFCnew,20,0,20,0,0.6511792999808677,3,No,0,-1,False Alarm,1,0,0.6686893000151031,False,True,1,0,2,stimulus2AFCnew_2IFCnew_2020_Mar_24_1702_311,stimulus2AFCnew_2IFCnew_2020_Mar_24_1702_312,False,1,2AFCnew,2020_Mar_24_1702,2IFCnew,
2IFCnew,21,0,21,0,-1,4,No,0,-1,Miss,0,1,0.3498752000159584,True,False,2,0,1,stimulus2AFCnew_2IFCnew_2020_Mar_24_1702_313,stimulus2AFCnew_2IFCnew_2020_Mar_24_1702_314,False,1,2AFCnew,2020_Mar_24_1702,2IFCnew,
2IFCnew,22,0,22,0,0.26640659995609894,8,No,0,-1,Correct Rejection,0,0,0.21830110001610592,False,True,2,0,2,stimulus2AFCnew_2IFCnew_2020_Mar_24_1702_315,stimulus2AFCnew_2IFCnew_2020_Mar_24_1702_316,False,1,2AFCnew,2020_Mar_24_1702,2IFCnew,
2IFCnew,23,0,23,0,-1,3,No,0,-1,Correct Rejection,0,0,0.8984621000126936,False,True,2,0,2,stimulus2AFCnew_2IFCnew_2020_Mar_24_1702_317,stimulus2AFCnew_2IFCnew_2020_Mar_24_1702_318,False,1,2AFCnew,2020_Mar_24_1702,2IFCnew,
2IFCnew,24,0,24,0,-1,4,No,0,-1,Miss,0,1,0.6164202999789268,True,False,2,0,1,stimulus2AFCnew_2IFCnew_2020_Mar_24_1702_319,stimulus2AFCnew_2IFCnew_2020_Mar_24_1702_320,False,1,2AFCnew,2020_Mar_24_1702,2IFCnew,
2IFCnew,25,0,25,0,0.20130269997753203,8,No,0,-1,Correct Rejection,0,0,0.1360104000195861,False,True,2,0,2,stimulus2AFCnew_2IFCnew_2020_Mar_24_1702_321,stimulus2AFCnew_2IFCnew_2020_Mar_24_1702_322,False,1,2AFCnew,2020_Mar_24_1702,2IFCnew,
2IFCnew,26,0,26,0,0.5182069999864325,6,No,0,-1,Miss,0,1,0.6512225000187755,True,False,2,0,1,stimulus2AFCnew_2IFCnew_2020_Mar_24_1702_323,stimulus2AFCnew_2IFCnew_2020_Mar_24_1702_324,False,1,2AFCnew,2020_Mar_24_1702,2IFCnew,
2IFCnew,27,0,27,0,0.38186530000530183,6,No,0,-1,Miss,0,1,0.3011947000049986,True,False,2,0,1,stimulus2AFCnew_2IFCnew_2020_Mar_24_1702_325,stimulus2AFCnew_2IFCnew_2020_Mar_24_1702_326,False,1,2AFCnew,2020_Mar_24_1702,2IFCnew,
2IFCnew,28,0,28,0,0.26743180002085865,8,No,0,-1,Correct Rejection,0,0,0.23453289997996762,False,True,2,0,2,stimulus2AFCnew_2IFCnew_2020_Mar_24_1702_327,stimulus2AFCnew_2IFCnew_2020_Mar_24_1702_328,False,1,2AFCnew,2020_Mar_24_1702,2IFCnew,
2IFCnew,29,0,29,0,-1,4,No,0,-1,Miss,0,1,0.417205500009004,True,False,2,0,1,stimulus2AFCnew_2IFCnew_2020_Mar_24_1702_329,stimulus2AFCnew_2IFCnew_2020_Mar_24_1702_330,False,1,2AFCnew,2020_Mar_24_1702,2IFCnew,
2IFCnew,30,0,30,0,0.5521504000062123,4,Yes,0,-1,Miss,0,1,0.3183665999677032,True,False,2,0,1,stimulus2AFCnew_2IFCnew_2020_Mar_24_1702_331,stimulus2AFCnew_2IFCnew_2020_Mar_24_1702_332,False,1,2AFCnew,2020_Mar_24_1702,2IFCnew,
2IFCnew,31,0,31,0,0.517989200016018,8,No,0,-1,Correct Rejection,0,0,0.4845145999570377,False,True,2,0,2,stimulus2AFCnew_2IFCnew_2020_Mar_24_1702_333,stimulus2AFCnew_2IFCnew_2020_Mar_24_1702_334,False,1,2AFCnew,2020_Mar_24_1702,2IFCnew,
2IFCnew,32,0,32,0,-1,4,No,0,-1,Miss,0,1,0.18451390002155676,True,False,2,0,1,stimulus2AFCnew_2IFCnew_2020_Mar_24_1702_335,stimulus2AFCnew_2IFCnew_2020_Mar_24_1702_336,False,1,2AFCnew,2020_Mar_24_1702,2IFCnew,
2IFCnew,33,0,33,0,0.3516109999618493,6,No,0,-1,Miss,0,1,0.30272059998242185,True,False,2,0,1,stimulus2AFCnew_2IFCnew_2020_Mar_24_1702_337,stimulus2AFCnew_2IFCnew_2020_Mar_24_1702_338,False,1,2AFCnew,2020_Mar_24_1702,2IFCnew,
2IFCnew,34,0,34,0,-1,4,No,0,-1,Miss,0,1,0.5688135999953374,True,False,2,0,1,stimulus2AFCnew_2IFCnew_2020_Mar_24_1702_339,stimulus2AFCnew_2IFCnew_2020_Mar_24_1702_340,False,1,2AFCnew,2020_Mar_24_1702,2IFCnew,
2IFCnew,35,0,35,0,0.36815049999859184,8,No,0,-1,Correct Rejection,0,0,0.3331898000324145,False,True,2,0,2,stimulus2AFCnew_2IFCnew_2020_Mar_24_1702_341,stimulus2AFCnew_2IFCnew_2020_Mar_24_1702_342,False,1,2AFCnew,2020_Mar_24_1702,2IFCnew,
2IFCnew,36,0,36,0,-1,3,No,0,-1,Correct Rejection,0,0,0.28532299998914823,False,True,2,0,2,stimulus2AFCnew_2IFCnew_2020_Mar_24_1702_343,stimulus2AFCnew_2IFCnew_2020_Mar_24_1702_344,False,1,2AFCnew,2020_Mar_24_1702,2IFCnew,
2IFCnew,37,0,37,0,-1,4,No,0,-1,Miss,0,1,0.2688633999787271,True,False,2,0,1,stimulus2AFCnew_2IFCnew_2020_Mar_24_1702_345,stimulus2AFCnew_2IFCnew_2020_Mar_24_1702_346,False,1,2AFCnew,2020_Mar_24_1702,2IFCnew,
2IFCnew,38,0,38,0,-1,3,No,0,-1,Correct Rejection,0,0,0.2513141999952495,False,True,2,0,2,stimulus2AFCnew_2IFCnew_2020_Mar_24_1702_347,stimulus2AFCnew_2IFCnew_2020_Mar_24_1702_348,False,1,2AFCnew,2020_Mar_24_1702,2IFCnew,
2IFCnew,39,0,39,0,-1,4,No,0,-1,Miss,0,1,0.38389430003007874,True,False,2,0,1,stimulus2AFCnew_2IFCnew_2020_Mar_24_1702_349,stimulus2AFCnew_2IFCnew_2020_Mar_24_1702_350,False,1,2AFCnew,2020_Mar_24_1702,2IFCnew,
2IFCnew,40,0,40,0,0.3018541000201367,6,No,0,-1,Miss,0,1,0.22032319998834282,True,False,2,0,1,stimulus2AFCnew_2IFCnew_2020_Mar_24_1702_351,stimulus2AFCnew_2IFCnew_2020_Mar_24_1702_352,False,1,2AFCnew,2020_Mar_24_1702,2IFCnew,
2IFCnew,41,0,41,0,0.31706949998624623,8,No,0,-1,Correct Rejection,0,0,0.4011191999888979,False,True,2,0,2,stimulus2AFCnew_2IFCnew_2020_Mar_24_1702_353,stimulus2AFCnew_2IFCnew_2020_Mar_24_1702_354,False,1,2AFCnew,2020_Mar_24_1702,2IFCnew,
2IFCnew,42,0,42,0,-1,3,No,0,-1,Correct Rejection,0,0,0.35066930000903085,False,True,2,0,2,stimulus2AFCnew_2IFCnew_2020_Mar_24_1702_355,stimulus2AFCnew_2IFCnew_2020_Mar_24_1702_356,False,1,2AFCnew,2020_Mar_24_1702,2IFCnew,
2IFCnew,43,0,43,0,-1,4,No,0,-1,Miss,0,1,0.2510953000164591,True,False,2,0,1,stimulus2AFCnew_2IFCnew_2020_Mar_24_1702_357,stimulus2AFCnew_2IFCnew_2020_Mar_24_1702_358,False,1,2AFCnew,2020_Mar_24_1702,2IFCnew,
2IFCnew,44,0,44,0,-1,3,No,0,-1,Correct Rejection,0,0,0.48716100002638996,False,True,2,0,2,stimulus2AFCnew_2IFCnew_2020_Mar_24_1702_359,stimulus2AFCnew_2IFCnew_2020_Mar_24_1702_360,False,1,2AFCnew,2020_Mar_24_1702,2IFCnew,
2IFCnew,0,0,0,0,0.5012742999824695,2,Yes,9,-1,Correct Rejection,0,0,0.7342397999600507,False,True,2,0,2,stimulus2AFCnew_2IFCnew_2020_Mar_24_1702_361,stimulus2AFCnew_2IFCnew_2020_Mar_24_1702_362,False,1,2AFCnew,2020_Mar_24_1702,2IFCnew,
2IFCnew,1,0,1,0,-1,3,Yes,9,-1,Correct Rejection,0,0,0.369909800007008,False,True,2,0,2,stimulus2AFCnew_2IFCnew_2020_Mar_24_1702_363,stimulus2AFCnew_2IFCnew_2020_Mar_24_1702_364,False,1,2AFCnew,2020_Mar_24_1702,2IFCnew,
2IFCnew,2,0,2,0,-1,1,Yes,9,-1,Hit,1,1,0.4511204000446014,True,False,1,0,1,stimulus2AFCnew_2IFCnew_2020_Mar_24_1702_365,stimulus2AFCnew_2IFCnew_2020_Mar_24_1702_366,False,1,2AFCnew,2020_Mar_24_1702,2IFCnew,
2IFCnew,3,0,3,0,-1,1,Yes,9,-1,Hit,1,1,0.43501969997305423,True,False,1,0,1,stimulus2AFCnew_2IFCnew_2020_Mar_24_1702_367,stimulus2AFCnew_2IFCnew_2020_Mar_24_1702_368,False,1,2AFCnew,2020_Mar_24_1702,2IFCnew,
2IFCnew,4,0,4,0,0.21825049998005852,6,No,9,-1,Miss,0,1,0.33530330000212416,True,False,2,0,1,stimulus2AFCnew_2IFCnew_2020_Mar_24_1702_369,stimulus2AFCnew_2IFCnew_2020_Mar_24_1702_370,False,1,2AFCnew,2020_Mar_24_1702,2IFCnew,
2IFCnew,5,0,5,0,-1,1,No,9,-1,Hit,1,1,0.4847326999879442,True,False,1,0,1,stimulus2AFCnew_2IFCnew_2020_Mar_24_1702_371,stimulus2AFCnew_2IFCnew_2020_Mar_24_1702_372,False,1,2AFCnew,2020_Mar_24_1702,2IFCnew,
2IFCnew,6,0,6,0,-1,1,No,9,-1,Hit,1,1,0.4194664999959059,True,False,1,0,1,stimulus2AFCnew_2IFCnew_2020_Mar_24_1702_373,stimulus2AFCnew_2IFCnew_2020_Mar_24_1702_374,False,1,2AFCnew,2020_Mar_24_1702,2IFCnew,
2IFCnew,7,0,7,0,-1,3,No,9,-1,Correct Rejection,0,0,0.5523877000086941,False,True,2,0,2,stimulus2AFCnew_2IFCnew_2020_Mar_24_1702_375,stimulus2AFCnew_2IFCnew_2020_Mar_24_1702_376,False,1,2AFCnew,2020_Mar_24_1702,2IFCnew,
2IFCnew,8,0,8,0,-1,0,No,9,-1,No Answer,2,2,-1,False,True,0,0,2,stimulus2AFCnew_2IFCnew_2020_Mar_24_1702_377,stimulus2AFCnew_2IFCnew_2020_Mar_24_1702_378,False,1,2AFCnew,2020_Mar_24_1702,2IFCnew,
2IFCnew,9,0,9,0,-1,1,No,9,-1,Hit,1,1,0.4357517000171356,True,False,1,0,1,stimulus2AFCnew_2IFCnew_2020_Mar_24_1702_379,stimulus2AFCnew_2IFCnew_2020_Mar_24_1702_380,False,1,2AFCnew,2020_Mar_24_1702,2IFCnew,
2IFCnew,10,0,10,0,-1,1,No,9,-1,Hit,1,1,0.4857960999943316,True,False,1,0,1,stimulus2AFCnew_2IFCnew_2020_Mar_24_1702_381,stimulus2AFCnew_2IFCnew_2020_Mar_24_1702_382,False,1,2AFCnew,2020_Mar_24_1702,2IFCnew,
2IFCnew,11,0,11,0,-1,3,No,9,-1,Correct Rejection,0,0,0.4017833999823779,False,True,2,0,2,stimulus2AFCnew_2IFCnew_2020_Mar_24_1702_383,stimulus2AFCnew_2IFCnew_2020_Mar_24_1702_384,False,1,2AFCnew,2020_Mar_24_1702,2IFCnew,
2IFCnew,12,0,12,0,-1,1,No,9,-1,Hit,1,1,0.38383139995858073,True,False,1,0,1,stimulus2AFCnew_2IFCnew_2020_Mar_24_1702_385,stimulus2AFCnew_2IFCnew_2020_Mar_24_1702_386,False,1,2AFCnew,2020_Mar_24_1702,2IFCnew,
2IFCnew,13,0,13,0,0.4022188999806531,5,Yes,9,-1,False Alarm,1,0,0.21942800004035234,False,True,1,0,2,stimulus2AFCnew_2IFCnew_2020_Mar_24_1702_387,stimulus2AFCnew_2IFCnew_2020_Mar_24_1702_388,False,1,2AFCnew,2020_Mar_24_1702,2IFCnew,
2IFCnew,14,0,14,0,-1,1,Yes,9,-1,Hit,1,1,0.4350204999791458,True,False,1,0,1,stimulus2AFCnew_2IFCnew_2020_Mar_24_1702_389,stimulus2AFCnew_2IFCnew_2020_Mar_24_1702_390,False,1,2AFCnew,2020_Mar_24_1702,2IFCnew,
2IFCnew,15,0,15,0,-1,1,Yes,9,-1,Hit,1,1,0.3850179999717511,True,False,1,0,1,stimulus2AFCnew_2IFCnew_2020_Mar_24_1702_391,stimulus2AFCnew_2IFCnew_2020_Mar_24_1702_392,False,1,2AFCnew,2020_Mar_24_1702,2IFCnew,
2IFCnew,16,0,16,0,-1,1,Yes,9,-1,Hit,1,1,0.4003787999972701,True,False,1,0,1,stimulus2AFCnew_2IFCnew_2020_Mar_24_1702_393,stimulus2AFCnew_2IFCnew_2020_Mar_24_1702_394,False,1,2AFCnew,2020_Mar_24_1702,2IFCnew,
2IFCnew,17,0,17,0,-1,1,Yes,9,-1,Hit,1,1,0.3504191000247374,True,False,1,0,1,stimulus2AFCnew_2IFCnew_2020_Mar_24_1702_395,stimulus2AFCnew_2IFCnew_2020_Mar_24_1702_396,False,1,2AFCnew,2020_Mar_24_1702,2IFCnew,
2IFCnew,18,0,18,0,0.585779300017748,4,Yes,9,-1,Miss,0,1,0.38526239997008815,True,False,2,0,1,stimulus2AFCnew_2IFCnew_2020_Mar_24_1702_397,stimulus2AFCnew_2IFCnew_2020_Mar_24_1702_398,False,1,2AFCnew,2020_Mar_24_1702,2IFCnew,
2IFCnew,19,0,19,0,-1,1,Yes,9,-1,Hit,1,1,0.5697657000273466,True,False,1,0,1,stimulus2AFCnew_2IFCnew_2020_Mar_24_1702_399,stimulus2AFCnew_2IFCnew_2020_Mar_24_1702_400,False,1,2AFCnew,2020_Mar_24_1702,2IFCnew,
2IFCnew,20,0,20,0,-1,1,Yes,9,-1,Hit,1,1,0.3847904999856837,True,False,1,0,1,stimulus2AFCnew_2IFCnew_2020_Mar_24_1702_401,stimulus2AFCnew_2IFCnew_2020_Mar_24_1702_402,False,1,2AFCnew,2020_Mar_24_1702,2IFCnew,
2IFCnew,21,0,21,0,-1,1,Yes,9,-1,Hit,1,1,0.46872910001548007,True,False,1,0,1,stimulus2AFCnew_2IFCnew_2020_Mar_24_1702_403,stimulus2AFCnew_2IFCnew_2020_Mar_24_1702_404,False,1,2AFCnew,2020_Mar_24_1702,2IFCnew,
2IFCnew,22,0,22,0,-1,1,Yes,9,-1,Hit,1,1,0.38517979998141527,True,False,1,0,1,stimulus2AFCnew_2IFCnew_2020_Mar_24_1702_405,stimulus2AFCnew_2IFCnew_2020_Mar_24_1702_406,False,1,2AFCnew,2020_Mar_24_1702,2IFCnew,
2IFCnew,23,0,23,0,-1,3,Yes,9,-1,Correct Rejection,0,0,0.4351658999803476,False,True,2,0,2,stimulus2AFCnew_2IFCnew_2020_Mar_24_1702_407,stimulus2AFCnew_2IFCnew_2020_Mar_24_1702_408,False,1,2AFCnew,2020_Mar_24_1702,2IFCnew,
2IFCnew,24,0,24,0,-1,1,Yes,9,-1,Hit,1,1,0.36629209999227896,True,False,1,0,1,stimulus2AFCnew_2IFCnew_2020_Mar_24_1702_409,stimulus2AFCnew_2IFCnew_2020_Mar_24_1702_410,False,1,2AFCnew,2020_Mar_24_1702,2IFCnew,
2IFCnew,25,0,25,0,-1,1,Yes,9,-1,Hit,1,1,0.43494220002321526,True,False,1,0,1,stimulus2AFCnew_2IFCnew_2020_Mar_24_1702_411,stimulus2AFCnew_2IFCnew_2020_Mar_24_1702_412,False,1,2AFCnew,2020_Mar_24_1702,2IFCnew,
2IFCnew,26,0,26,0,-1,1,Yes,9,-1,Hit,1,1,0.4021334999706596,True,False,1,0,1,stimulus2AFCnew_2IFCnew_2020_Mar_24_1702_413,stimulus2AFCnew_2IFCnew_2020_Mar_24_1702_414,False,1,2AFCnew,2020_Mar_24_1702,2IFCnew,
2IFCnew,27,0,27,0,-1,3,Yes,9,-1,Correct Rejection,0,0,0.40111209999304265,False,True,2,0,2,stimulus2AFCnew_2IFCnew_2020_Mar_24_1702_415,stimulus2AFCnew_2IFCnew_2020_Mar_24_1702_416,False,1,2AFCnew,2020_Mar_24_1702,2IFCnew,
2IFCnew,28,0,28,0,-1,1,Yes,9,-1,Hit,1,1,0.39933029998792335,True,False,1,0,1,stimulus2AFCnew_2IFCnew_2020_Mar_24_1702_417,stimulus2AFCnew_2IFCnew_2020_Mar_24_1702_418,False,1,2AFCnew,2020_Mar_24_1702,2IFCnew,
2IFCnew,29,0,29,0,-1,3,Yes,9,-1,Correct Rejection,0,0,0.48521850001998246,False,True,2,0,2,stimulus2AFCnew_2IFCnew_2020_Mar_24_1702_419,stimulus2AFCnew_2IFCnew_2020_Mar_24_1702_420,False,1,2AFCnew,2020_Mar_24_1702,2IFCnew,
2IFCnew,30,0,30,0,-1,1,Yes,9,-1,Hit,1,1,0.35407619999023154,True,False,1,0,1,stimulus2AFCnew_2IFCnew_2020_Mar_24_1702_421,stimulus2AFCnew_2IFCnew_2020_Mar_24_1702_422,False,1,2AFCnew,2020_Mar_24_1702,2IFCnew,
2IFCnew,31,0,31,0,-1,3,Yes,9,-1,Correct Rejection,0,0,0.29998869996052235,False,True,2,0,2,stimulus2AFCnew_2IFCnew_2020_Mar_24_1702_423,stimulus2AFCnew_2IFCnew_2020_Mar_24_1702_424,False,1,2AFCnew,2020_Mar_24_1702,2IFCnew,
2IFCnew,32,0,32,0,-1,1,Yes,9,-1,Hit,1,1,0.2831466000061482,True,False,1,0,1,stimulus2AFCnew_2IFCnew_2020_Mar_24_1702_425,stimulus2AFCnew_2IFCnew_2020_Mar_24_1702_426,False,1,2AFCnew,2020_Mar_24_1702,2IFCnew,
2IFCnew,33,0,33,0,-1,1,Yes,9,-1,Hit,1,1,0.5354973999783397,True,False,1,0,1,stimulus2AFCnew_2IFCnew_2020_Mar_24_1702_427,stimulus2AFCnew_2IFCnew_2020_Mar_24_1702_428,False,1,2AFCnew,2020_Mar_24_1702,2IFCnew,
2IFCnew,34,0,34,0,-1,3,Yes,9,-1,Correct Rejection,0,0,0.24879260000307113,False,True,2,0,2,stimulus2AFCnew_2IFCnew_2020_Mar_24_1702_429,stimulus2AFCnew_2IFCnew_2020_Mar_24_1702_430,False,1,2AFCnew,2020_Mar_24_1702,2IFCnew,
2IFCnew,35,0,35,0,-1,1,Yes,9,-1,Hit,1,1,0.3055201999959536,True,False,1,0,1,stimulus2AFCnew_2IFCnew_2020_Mar_24_1702_431,stimulus2AFCnew_2IFCnew_2020_Mar_24_1702_432,False,1,2AFCnew,2020_Mar_24_1702,2IFCnew,
2IFCnew,36,0,36,0,0.2851395000470802,6,No,9,-1,Miss,0,1,0.266933600010816,True,False,2,0,1,stimulus2AFCnew_2IFCnew_2020_Mar_24_1702_433,stimulus2AFCnew_2IFCnew_2020_Mar_24_1702_434,False,1,2AFCnew,2020_Mar_24_1702,2IFCnew,
2IFCnew,37,0,37,0,-1,0,No,9,-1,No Answer,2,2,-1,False,True,0,0,2,stimulus2AFCnew_2IFCnew_2020_Mar_24_1702_435,stimulus2AFCnew_2IFCnew_2020_Mar_24_1702_436,False,1,2AFCnew,2020_Mar_24_1702,2IFCnew,
2IFCnew,38,0,38,0,-1,3,No,9,-1,Correct Rejection,0,0,0.45120489998953417,False,True,2,0,2,stimulus2AFCnew_2IFCnew_2020_Mar_24_1702_437,stimulus2AFCnew_2IFCnew_2020_Mar_24_1702_438,False,1,2AFCnew,2020_Mar_24_1702,2IFCnew,
2IFCnew,39,0,39,0,0.44871609995607287,6,No,9,-1,Miss,0,1,0.5526012000045739,True,False,2,0,1,stimulus2AFCnew_2IFCnew_2020_Mar_24_1702_439,stimulus2AFCnew_2IFCnew_2020_Mar_24_1702_440,False,1,2AFCnew,2020_Mar_24_1702,2IFCnew,
2IFCnew,40,0,40,0,0.250861199980136,5,Yes,9,-1,False Alarm,1,0,0.4498896000441164,False,True,1,0,2,stimulus2AFCnew_2IFCnew_2020_Mar_24_1702_441,stimulus2AFCnew_2IFCnew_2020_Mar_24_1702_442,False,1,2AFCnew,2020_Mar_24_1702,2IFCnew,
2IFCnew,41,0,41,0,-1,1,Yes,9,-1,Hit,1,1,0.4805266999755986,True,False,1,0,1,stimulus2AFCnew_2IFCnew_2020_Mar_24_1702_443,stimulus2AFCnew_2IFCnew_2020_Mar_24_1702_444,False,1,2AFCnew,2020_Mar_24_1702,2IFCnew,
2IFCnew,42,0,42,0,-1,3,Yes,9,-1,Correct Rejection,0,0,0.6191646000370383,False,True,2,0,2,stimulus2AFCnew_2IFCnew_2020_Mar_24_1702_445,stimulus2AFCnew_2IFCnew_2020_Mar_24_1702_446,False,1,2AFCnew,2020_Mar_24_1702,2IFCnew,
2IFCnew,43,0,43,0,-1,1,Yes,9,-1,Hit,1,1,0.417449000000488,True,False,1,0,1,stimulus2AFCnew_2IFCnew_2020_Mar_24_1702_447,stimulus2AFCnew_2IFCnew_2020_Mar_24_1702_448,False,1,2AFCnew,2020_Mar_24_1702,2IFCnew,
2IFCnew,44,0,44,0,-1,3,Yes,9,-1,Correct Rejection,0,0,0.5693582999520004,False,True,2,0,2,stimulus2AFCnew_2IFCnew_2020_Mar_24_1702_449,stimulus2AFCnew_2IFCnew_2020_Mar_24_1702_450,False,1,2AFCnew,2020_Mar_24_1702,2IFCnew,
2IFCnew,0,0,0,0,-1,4,Yes,8,-1,Miss,0,1,0.46903620002558455,True,False,2,0,1,stimulus2AFCnew_2IFCnew_2020_Mar_24_1702_451,stimulus2AFCnew_2IFCnew_2020_Mar_24_1702_452,False,1,2AFCnew,2020_Mar_24_1702,2IFCnew,
2IFCnew,1,0,1,0,0.4679655999643728,6,No,8,-1,Miss,0,1,0.3317045999574475,True,False,2,0,1,stimulus2AFCnew_2IFCnew_2020_Mar_24_1702_453,stimulus2AFCnew_2IFCnew_2020_Mar_24_1702_454,False,1,2AFCnew,2020_Mar_24_1702,2IFCnew,
2IFCnew,2,0,2,0,0.3338965000002645,3,No,8,-1,False Alarm,1,0,0.4010324000264518,False,True,1,0,2,stimulus2AFCnew_2IFCnew_2020_Mar_24_1702_455,stimulus2AFCnew_2IFCnew_2020_Mar_24_1702_456,False,1,2AFCnew,2020_Mar_24_1702,2IFCnew,
2IFCnew,3,0,3,0,-1,1,No,8,-1,Hit,1,1,0.5497029999969527,True,False,1,0,1,stimulus2AFCnew_2IFCnew_2020_Mar_24_1702_457,stimulus2AFCnew_2IFCnew_2020_Mar_24_1702_458,False,1,2AFCnew,2020_Mar_24_1702,2IFCnew,
2IFCnew,4,0,4,0,-1,3,No,8,-1,Correct Rejection,0,0,0.4680248000076972,False,True,2,0,2,stimulus2AFCnew_2IFCnew_2020_Mar_24_1702_459,stimulus2AFCnew_2IFCnew_2020_Mar_24_1702_460,False,1,2AFCnew,2020_Mar_24_1702,2IFCnew,
2IFCnew,5,0,5,0,-1,1,No,8,-1,Hit,1,1,0.48543830000562593,True,False,1,0,1,stimulus2AFCnew_2IFCnew_2020_Mar_24_1702_461,stimulus2AFCnew_2IFCnew_2020_Mar_24_1702_462,False,1,2AFCnew,2020_Mar_24_1702,2IFCnew,
2IFCnew,6,0,6,0,-1,1,No,8,-1,Hit,1,1,0.38442130002658814,True,False,1,0,1,stimulus2AFCnew_2IFCnew_2020_Mar_24_1702_463,stimulus2AFCnew_2IFCnew_2020_Mar_24_1702_464,False,1,2AFCnew,2020_Mar_24_1702,2IFCnew,
2IFCnew,7,0,7,0,-1,1,No,8,-1,Hit,1,1,0.4013628999819048,True,False,1,0,1,stimulus2AFCnew_2IFCnew_2020_Mar_24_1702_465,stimulus2AFCnew_2IFCnew_2020_Mar_24_1702_466,False,1,2AFCnew,2020_Mar_24_1702,2IFCnew,
2IFCnew,8,0,8,0,-1,1,No,8,-1,Hit,1,1,0.4998003999935463,True,False,1,0,1,stimulus2AFCnew_2IFCnew_2020_Mar_24_1702_467,stimulus2AFCnew_2IFCnew_2020_Mar_24_1702_468,False,1,2AFCnew,2020_Mar_24_1702,2IFCnew,
2IFCnew,9,0,9,0,0.4844011000241153,6,No,8,-1,Miss,0,1,0.5851528999628499,True,False,2,0,1,stimulus2AFCnew_2IFCnew_2020_Mar_24_1702_469,stimulus2AFCnew_2IFCnew_2020_Mar_24_1702_470,False,1,2AFCnew,2020_Mar_24_1702,2IFCnew,
2IFCnew,10,0,10,0,-1,1,No,8,-1,Hit,1,1,0.4844450000091456,True,False,1,0,1,stimulus2AFCnew_2IFCnew_2020_Mar_24_1702_471,stimulus2AFCnew_2IFCnew_2020_Mar_24_1702_472,False,1,2AFCnew,2020_Mar_24_1702,2IFCnew,
2IFCnew,11,0,11,0,0.25185349996900186,5,Yes,8,-1,False Alarm,1,0,0.34973150002770126,False,True,1,0,2,stimulus2AFCnew_2IFCnew_2020_Mar_24_1702_473,stimulus2AFCnew_2IFCnew_2020_Mar_24_1702_474,False,1,2AFCnew,2020_Mar_24_1702,2IFCnew,
2IFCnew,12,0,12,0,-1,1,Yes,8,-1,Hit,1,1,0.35041130002355203,True,False,1,0,1,stimulus2AFCnew_2IFCnew_2020_Mar_24_1702_475,stimulus2AFCnew_2IFCnew_2020_Mar_24_1702_476,False,1,2AFCnew,2020_Mar_24_1702,2IFCnew,
2IFCnew,13,0,13,0,-1,3,Yes,8,-1,Correct Rejection,0,0,0.40136730001540855,False,True,2,0,2,stimulus2AFCnew_2IFCnew_2020_Mar_24_1702_477,stimulus2AFCnew_2IFCnew_2020_Mar_24_1702_478,False,1,2AFCnew,2020_Mar_24_1702,2IFCnew,
2IFCnew,14,0,14,0,-1,1,Yes,8,-1,Hit,1,1,0.38376270001754165,True,False,1,0,1,stimulus2AFCnew_2IFCnew_2020_Mar_24_1702_479,stimulus2AFCnew_2IFCnew_2020_Mar_24_1702_480,False,1,2AFCnew,2020_Mar_24_1702,2IFCnew,
2IFCnew,15,0,15,0,0.4673314999672584,8,No,8,-1,Correct Rejection,0,0,0.5196379999979399,False,True,2,0,2,stimulus2AFCnew_2IFCnew_2020_Mar_24_1702_481,stimulus2AFCnew_2IFCnew_2020_Mar_24_1702_482,False,1,2AFCnew,2020_Mar_24_1702,2IFCnew,
2IFCnew,16,0,16,0,-1,3,No,8,-1,Correct Rejection,0,0,0.2837870999937877,False,True,2,0,2,stimulus2AFCnew_2IFCnew_2020_Mar_24_1702_483,stimulus2AFCnew_2IFCnew_2020_Mar_24_1702_484,False,1,2AFCnew,2020_Mar_24_1702,2IFCnew,
2IFCnew,17,0,17,0,0.2337925999891013,6,No,8,-1,Miss,0,1,0.3176973999943584,True,False,2,0,1,stimulus2AFCnew_2IFCnew_2020_Mar_24_1702_485,stimulus2AFCnew_2IFCnew_2020_Mar_24_1702_486,False,1,2AFCnew,2020_Mar_24_1702,2IFCnew,
2IFCnew,18,0,18,0,-1,3,No,8,-1,Correct Rejection,0,0,0.5507007999694906,False,True,2,0,2,stimulus2AFCnew_2IFCnew_2020_Mar_24_1702_487,stimulus2AFCnew_2IFCnew_2020_Mar_24_1702_488,False,1,2AFCnew,2020_Mar_24_1702,2IFCnew,
2IFCnew,19,0,19,0,-1,3,No,8,-1,Correct Rejection,0,0,0.31533810001565143,False,True,2,0,2,stimulus2AFCnew_2IFCnew_2020_Mar_24_1702_489,stimulus2AFCnew_2IFCnew_2020_Mar_24_1702_490,False,1,2AFCnew,2020_Mar_24_1702,2IFCnew,
2IFCnew,20,0,20,0,-1,1,No,8,-1,Hit,1,1,0.31861930002924055,True,False,1,0,1,stimulus2AFCnew_2IFCnew_2020_Mar_24_1702_491,stimulus2AFCnew_2IFCnew_2020_Mar_24_1702_492,False,1,2AFCnew,2020_Mar_24_1702,2IFCnew,
2IFCnew,21,0,21,0,-1,1,No,8,-1,Hit,1,1,0.4674502999987453,True,False,1,0,1,stimulus2AFCnew_2IFCnew_2020_Mar_24_1702_493,stimulus2AFCnew_2IFCnew_2020_Mar_24_1702_494,False,1,2AFCnew,2020_Mar_24_1702,2IFCnew,
2IFCnew,22,0,22,0,-1,3,No,8,-1,Correct Rejection,0,0,0.4009606000036001,False,True,2,0,2,stimulus2AFCnew_2IFCnew_2020_Mar_24_1702_495,stimulus2AFCnew_2IFCnew_2020_Mar_24_1702_496,False,1,2AFCnew,2020_Mar_24_1702,2IFCnew,
2IFCnew,23,0,23,0,-1,1,No,8,-1,Hit,1,1,0.4668132000369951,True,False,1,0,1,stimulus2AFCnew_2IFCnew_2020_Mar_24_1702_497,stimulus2AFCnew_2IFCnew_2020_Mar_24_1702_498,False,1,2AFCnew,2020_Mar_24_1702,2IFCnew,
2IFCnew,24,0,24,0,-1,3,No,8,-1,Correct Rejection,0,0,0.3515215999796055,False,True,2,0,2,stimulus2AFCnew_2IFCnew_2020_Mar_24_1702_499,stimulus2AFCnew_2IFCnew_2020_Mar_24_1702_500,False,1,2AFCnew,2020_Mar_24_1702,2IFCnew,
2IFCnew,25,0,25,0,-1,1,No,8,-1,Hit,1,1,0.35140029998729005,True,False,1,0,1,stimulus2AFCnew_2IFCnew_2020_Mar_24_1702_501,stimulus2AFCnew_2IFCnew_2020_Mar_24_1702_502,False,1,2AFCnew,2020_Mar_24_1702,2IFCnew,
2IFCnew,26,0,26,0,-1,3,No,8,-1,Correct Rejection,0,0,0.336347000033129,False,True,2,0,2,stimulus2AFCnew_2IFCnew_2020_Mar_24_1702_503,stimulus2AFCnew_2IFCnew_2020_Mar_24_1702_504,False,1,2AFCnew,2020_Mar_24_1702,2IFCnew,
2IFCnew,27,0,27,0,0.31788299995241687,5,Yes,8,-1,False Alarm,1,0,0.29896679997909814,False,True,1,0,2,stimulus2AFCnew_2IFCnew_2020_Mar_24_1702_505,stimulus2AFCnew_2IFCnew_2020_Mar_24_1702_506,False,1,2AFCnew,2020_Mar_24_1702,2IFCnew,
2IFCnew,28,0,28,0,0.4513495999854058,1,No,8,-1,Hit,1,1,0.3677685000002384,True,False,1,0,1,stimulus2AFCnew_2IFCnew_2020_Mar_24_1702_507,stimulus2AFCnew_2IFCnew_2020_Mar_24_1702_508,False,1,2AFCnew,2020_Mar_24_1702,2IFCnew,
2IFCnew,29,0,29,0,0.3185185000183992,6,No,8,-1,Miss,0,1,0.6018906999961473,True,False,2,0,1,stimulus2AFCnew_2IFCnew_2020_Mar_24_1702_509,stimulus2AFCnew_2IFCnew_2020_Mar_24_1702_510,False,1,2AFCnew,2020_Mar_24_1702,2IFCnew,
2IFCnew,30,0,30,0,0.7179995000478812,1,No,8,-1,Hit,1,1,0.4851077000494115,True,False,1,0,1,stimulus2AFCnew_2IFCnew_2020_Mar_24_1702_511,stimulus2AFCnew_2IFCnew_2020_Mar_24_1702_512,False,1,2AFCnew,2020_Mar_24_1702,2IFCnew,
2IFCnew,31,0,31,0,-1,3,No,8,-1,Correct Rejection,0,0,0.43397990002995357,False,True,2,0,2,stimulus2AFCnew_2IFCnew_2020_Mar_24_1702_513,stimulus2AFCnew_2IFCnew_2020_Mar_24_1702_514,False,1,2AFCnew,2020_Mar_24_1702,2IFCnew,
2IFCnew,32,0,32,0,-1,1,No,8,-1,Hit,1,1,0.5354061999823898,True,False,1,0,1,stimulus2AFCnew_2IFCnew_2020_Mar_24_1702_515,stimulus2AFCnew_2IFCnew_2020_Mar_24_1702_516,False,1,2AFCnew,2020_Mar_24_1702,2IFCnew,
2IFCnew,33,0,33,0,-1,1,No,8,-1,Hit,1,1,0.48420149995945394,True,False,1,0,1,stimulus2AFCnew_2IFCnew_2020_Mar_24_1702_517,stimulus2AFCnew_2IFCnew_2020_Mar_24_1702_518,False,1,2AFCnew,2020_Mar_24_1702,2IFCnew,
2IFCnew,34,0,34,0,-1,3,No,8,-1,Correct Rejection,0,0,0.46812500001396984,False,True,2,0,2,stimulus2AFCnew_2IFCnew_2020_Mar_24_1702_519,stimulus2AFCnew_2IFCnew_2020_Mar_24_1702_520,False,1,2AFCnew,2020_Mar_24_1702,2IFCnew,
2IFCnew,35,0,35,0,-1,2,No,8,-1,False Alarm,1,0,0.334658199979458,False,True,1,0,2,stimulus2AFCnew_2IFCnew_2020_Mar_24_1702_521,stimulus2AFCnew_2IFCnew_2020_Mar_24_1702_522,False,1,2AFCnew,2020_Mar_24_1702,2IFCnew,
2IFCnew,36,0,36,0,0.5492890999885276,5,Yes,8,-1,False Alarm,1,0,0.4025302000227384,False,True,1,0,2,stimulus2AFCnew_2IFCnew_2020_Mar_24_1702_523,stimulus2AFCnew_2IFCnew_2020_Mar_24_1702_524,False,1,2AFCnew,2020_Mar_24_1702,2IFCnew,
2IFCnew,37,0,37,0,-1,1,Yes,8,-1,Hit,1,1,0.4513001999584958,True,False,1,0,1,stimulus2AFCnew_2IFCnew_2020_Mar_24_1702_525,stimulus2AFCnew_2IFCnew_2020_Mar_24_1702_526,False,1,2AFCnew,2020_Mar_24_1702,2IFCnew,
2IFCnew,38,0,38,0,-1,1,Yes,8,-1,Hit,1,1,0.45277380000334233,True,False,1,0,1,stimulus2AFCnew_2IFCnew_2020_Mar_24_1702_527,stimulus2AFCnew_2IFCnew_2020_Mar_24_1702_528,False,1,2AFCnew,2020_Mar_24_1702,2IFCnew,
2IFCnew,39,0,39,0,0.25076079997234046,5,Yes,8,-1,False Alarm,1,0,0.41964769997866824,False,True,1,0,2,stimulus2AFCnew_2IFCnew_2020_Mar_24_1702_529,stimulus2AFCnew_2IFCnew_2020_Mar_24_1702_530,False,1,2AFCnew,2020_Mar_24_1702,2IFCnew,
2IFCnew,40,0,40,0,0.8355396999977529,2,Yes,8,-1,Correct Rejection,0,0,0.5022629000013694,False,True,2,0,2,stimulus2AFCnew_2IFCnew_2020_Mar_24_1702_531,stimulus2AFCnew_2IFCnew_2020_Mar_24_1702_532,False,1,2AFCnew,2020_Mar_24_1702,2IFCnew,
2IFCnew,41,0,41,0,-1,1,Yes,8,-1,Hit,1,1,0.5021626999950968,True,False,1,0,1,stimulus2AFCnew_2IFCnew_2020_Mar_24_1702_533,stimulus2AFCnew_2IFCnew_2020_Mar_24_1702_534,False,1,2AFCnew,2020_Mar_24_1702,2IFCnew,
2IFCnew,42,0,42,0,0.41769979998935014,6,No,8,-1,Miss,0,1,0.40110550000099465,True,False,2,0,1,stimulus2AFCnew_2IFCnew_2020_Mar_24_1702_535,stimulus2AFCnew_2IFCnew_2020_Mar_24_1702_536,False,1,2AFCnew,2020_Mar_24_1702,2IFCnew,
2IFCnew,43,0,43,0,-1,3,No,8,-1,Correct Rejection,0,0,0.5193556000012904,False,True,2,0,2,stimulus2AFCnew_2IFCnew_2020_Mar_24_1702_537,stimulus2AFCnew_2IFCnew_2020_Mar_24_1702_538,False,1,2AFCnew,2020_Mar_24_1702,2IFCnew,
2IFCnew,44,0,44,0,-1,1,No,8,-1,Hit,1,1,0.46859000000404194,True,False,1,0,1,stimulus2AFCnew_2IFCnew_2020_Mar_24_1702_539,stimulus2AFCnew_2IFCnew_2020_Mar_24_1702_540,False,1,2AFCnew,2020_Mar_24_1702,2IFCnew,
2IFCnew,0,0,0,0,0.35158799996133894,4,Yes,5,-1,Miss,0,1,0.46882929996354505,True,False,2,0,1,stimulus2AFCnew_2IFCnew_2020_Mar_24_1702_541,stimulus2AFCnew_2IFCnew_2020_Mar_24_1702_542,False,1,2AFCnew,2020_Mar_24_1702,2IFCnew,
2IFCnew,1,0,1,0,0.4173746000160463,8,No,5,-1,Correct Rejection,0,0,0.6342863000463694,False,True,2,0,2,stimulus2AFCnew_2IFCnew_2020_Mar_24_1702_543,stimulus2AFCnew_2IFCnew_2020_Mar_24_1702_544,False,1,2AFCnew,2020_Mar_24_1702,2IFCnew,
2IFCnew,2,0,2,0,0.20157620002282783,6,No,5,-1,Miss,0,1,0.2696674999897368,True,False,2,0,1,stimulus2AFCnew_2IFCnew_2020_Mar_24_1702_545,stimulus2AFCnew_2IFCnew_2020_Mar_24_1702_546,False,1,2AFCnew,2020_Mar_24_1702,2IFCnew,
2IFCnew,3,0,3,0,-1,1,No,5,-1,Hit,1,1,0.40354809997370467,True,False,1,0,1,stimulus2AFCnew_2IFCnew_2020_Mar_24_1702_547,stimulus2AFCnew_2IFCnew_2020_Mar_24_1702_548,False,1,2AFCnew,2020_Mar_24_1702,2IFCnew,
2IFCnew,4,0,4,0,-1,4,No,5,-1,Miss,0,1,0.365550099988468,True,False,2,0,1,stimulus2AFCnew_2IFCnew_2020_Mar_24_1702_549,stimulus2AFCnew_2IFCnew_2020_Mar_24_1702_550,False,1,2AFCnew,2020_Mar_24_1702,2IFCnew,
2IFCnew,5,0,5,0,-1,1,No,5,-1,Hit,1,1,0.36882319999858737,True,False,1,0,1,stimulus2AFCnew_2IFCnew_2020_Mar_24_1702_551,stimulus2AFCnew_2IFCnew_2020_Mar_24_1702_552,False,1,2AFCnew,2020_Mar_24_1702,2IFCnew,
2IFCnew,6,0,6,0,0.38454650004860014,1,No,5,-1,Hit,1,1,0.3996432999847457,True,False,1,0,1,stimulus2AFCnew_2IFCnew_2020_Mar_24_1702_553,stimulus2AFCnew_2IFCnew_2020_Mar_24_1702_554,False,1,2AFCnew,2020_Mar_24_1702,2IFCnew,
2IFCnew,7,0,7,0,0.45089600002393126,2,Yes,5,-1,Correct Rejection,0,0,0.4364153000060469,False,True,2,0,2,stimulus2AFCnew_2IFCnew_2020_Mar_24_1702_555,stimulus2AFCnew_2IFCnew_2020_Mar_24_1702_556,False,1,2AFCnew,2020_Mar_24_1702,2IFCnew,
2IFCnew,8,0,8,0,-1,3,Yes,5,-1,Correct Rejection,0,0,0.5366822000360116,False,True,2,0,2,stimulus2AFCnew_2IFCnew_2020_Mar_24_1702_557,stimulus2AFCnew_2IFCnew_2020_Mar_24_1702_558,False,1,2AFCnew,2020_Mar_24_1702,2IFCnew,
2IFCnew,9,0,9,0,-1,3,Yes,5,-1,Correct Rejection,0,0,0.4044618000043556,False,True,2,0,2,stimulus2AFCnew_2IFCnew_2020_Mar_24_1702_559,stimulus2AFCnew_2IFCnew_2020_Mar_24_1702_560,False,1,2AFCnew,2020_Mar_24_1702,2IFCnew,
2IFCnew,10,0,10,0,-1,1,Yes,5,-1,Hit,1,1,0.5179494000039995,True,False,1,0,1,stimulus2AFCnew_2IFCnew_2020_Mar_24_1702_561,stimulus2AFCnew_2IFCnew_2020_Mar_24_1702_562,False,1,2AFCnew,2020_Mar_24_1702,2IFCnew,
2IFCnew,11,0,11,0,-1,3,Yes,5,-1,Correct Rejection,0,0,0.4202563000144437,False,True,2,0,2,stimulus2AFCnew_2IFCnew_2020_Mar_24_1702_563,stimulus2AFCnew_2IFCnew_2020_Mar_24_1702_564,False,1,2AFCnew,2020_Mar_24_1702,2IFCnew,
2IFCnew,12,0,12,0,0.283356299973093,6,No,5,-1,Miss,0,1,0.40167839999776334,True,False,2,0,1,stimulus2AFCnew_2IFCnew_2020_Mar_24_1702_565,stimulus2AFCnew_2IFCnew_2020_Mar_24_1702_566,False,1,2AFCnew,2020_Mar_24_1702,2IFCnew,
2IFCnew,13,0,13,0,0.36741669999901205,5,Yes,5,-1,False Alarm,1,0,0.41823090001707897,False,True,1,0,2,stimulus2AFCnew_2IFCnew_2020_Mar_24_1702_567,stimulus2AFCnew_2IFCnew_2020_Mar_24_1702_568,False,1,2AFCnew,2020_Mar_24_1702,2IFCnew,
2IFCnew,14,0,14,0,-1,3,Yes,5,-1,Correct Rejection,0,0,0.384847900015302,False,True,2,0,2,stimulus2AFCnew_2IFCnew_2020_Mar_24_1702_569,stimulus2AFCnew_2IFCnew_2020_Mar_24_1702_570,False,1,2AFCnew,2020_Mar_24_1702,2IFCnew,
2IFCnew,15,0,15,0,0.41773960000136867,8,No,5,-1,Correct Rejection,0,0,0.6510369000025094,False,True,2,0,2,stimulus2AFCnew_2IFCnew_2020_Mar_24_1702_571,stimulus2AFCnew_2IFCnew_2020_Mar_24_1702_572,False,1,2AFCnew,2020_Mar_24_1702,2IFCnew,
2IFCnew,16,0,16,0,-1,1,No,5,-1,Hit,1,1,0.45008299994515255,True,False,1,0,1,stimulus2AFCnew_2IFCnew_2020_Mar_24_1702_573,stimulus2AFCnew_2IFCnew_2020_Mar_24_1702_574,False,1,2AFCnew,2020_Mar_24_1702,2IFCnew,
2IFCnew,17,0,17,0,-1,2,No,5,-1,False Alarm,1,0,0.5886612999602221,False,True,1,0,2,stimulus2AFCnew_2IFCnew_2020_Mar_24_1702_575,stimulus2AFCnew_2IFCnew_2020_Mar_24_1702_576,False,1,2AFCnew,2020_Mar_24_1702,2IFCnew,
2IFCnew,18,0,18,0,-1,1,No,5,-1,Hit,1,1,0.5675131999887526,True,False,1,0,1,stimulus2AFCnew_2IFCnew_2020_Mar_24_1702_577,stimulus2AFCnew_2IFCnew_2020_Mar_24_1702_578,False,1,2AFCnew,2020_Mar_24_1702,2IFCnew,
2IFCnew,19,0,19,0,-1,1,No,5,-1,Hit,1,1,0.3719821000122465,True,False,1,0,1,stimulus2AFCnew_2IFCnew_2020_Mar_24_1702_579,stimulus2AFCnew_2IFCnew_2020_Mar_24_1702_580,False,1,2AFCnew,2020_Mar_24_1702,2IFCnew,
2IFCnew,20,0,20,0,0.6688093999982812,2,Yes,5,-1,Correct Rejection,0,0,0.467467799957376,False,True,2,0,2,stimulus2AFCnew_2IFCnew_2020_Mar_24_1702_581,stimulus2AFCnew_2IFCnew_2020_Mar_24_1702_582,False,1,2AFCnew,2020_Mar_24_1702,2IFCnew,
2IFCnew,21,0,21,0,-1,1,Yes,5,-1,Hit,1,1,0.5683132000267506,True,False,1,0,1,stimulus2AFCnew_2IFCnew_2020_Mar_24_1702_583,stimulus2AFCnew_2IFCnew_2020_Mar_24_1702_584,False,1,2AFCnew,2020_Mar_24_1702,2IFCnew,
2IFCnew,22,0,22,0,0.2843791000195779,6,No,5,-1,Miss,0,1,0.350032199989073,True,False,2,0,1,stimulus2AFCnew_2IFCnew_2020_Mar_24_1702_585,stimulus2AFCnew_2IFCnew_2020_Mar_24_1702_586,False,1,2AFCnew,2020_Mar_24_1702,2IFCnew,
2IFCnew,23,0,23,0,0.38424389995634556,5,Yes,5,-1,False Alarm,1,0,0.3846093000029214,False,True,1,0,2,stimulus2AFCnew_2IFCnew_2020_Mar_24_1702_587,stimulus2AFCnew_2IFCnew_2020_Mar_24_1702_588,False,1,2AFCnew,2020_Mar_24_1702,2IFCnew,
2IFCnew,24,0,24,0,-1,1,Yes,5,-1,Hit,1,1,0.5165167999803089,True,False,1,0,1,stimulus2AFCnew_2IFCnew_2020_Mar_24_1702_589,stimulus2AFCnew_2IFCnew_2020_Mar_24_1702_590,False,1,2AFCnew,2020_Mar_24_1702,2IFCnew,
2IFCnew,25,0,25,0,-1,3,Yes,5,-1,Correct Rejection,0,0,0.4673127999994904,False,True,2,0,2,stimulus2AFCnew_2IFCnew_2020_Mar_24_1702_591,stimulus2AFCnew_2IFCnew_2020_Mar_24_1702_592,False,1,2AFCnew,2020_Mar_24_1702,2IFCnew,
2IFCnew,26,0,26,0,0.3681601000134833,7,Yes,5,-1,Hit,1,1,0.46789349999744445,True,False,1,0,1,stimulus2AFCnew_2IFCnew_2020_Mar_24_1702_593,stimulus2AFCnew_2IFCnew_2020_Mar_24_1702_594,False,1,2AFCnew,2020_Mar_24_1702,2IFCnew,
2IFCnew,27,0,27,0,-1,1,Yes,5,-1,Hit,1,1,0.43588340003043413,True,False,1,0,1,stimulus2AFCnew_2IFCnew_2020_Mar_24_1702_595,stimulus2AFCnew_2IFCnew_2020_Mar_24_1702_596,False,1,2AFCnew,2020_Mar_24_1702,2IFCnew,
2IFCnew,28,0,28,0,-1,1,Yes,5,-1,Hit,1,1,0.5854842999833636,True,False,1,0,1,stimulus2AFCnew_2IFCnew_2020_Mar_24_1702_597,stimulus2AFCnew_2IFCnew_2020_Mar_24_1702_598,False,1,2AFCnew,2020_Mar_24_1702,2IFCnew,
2IFCnew,29,0,29,0,-1,3,Yes,5,-1,Correct Rejection,0,0,0.5205693999887444,False,True,2,0,2,stimulus2AFCnew_2IFCnew_2020_Mar_24_1702_599,stimulus2AFCnew_2IFCnew_2020_Mar_24_1702_600,False,1,2AFCnew,2020_Mar_24_1702,2IFCnew,
2IFCnew,30,0,30,0,0.2496331000002101,5,Yes,5,-1,False Alarm,1,0,0.4862973999697715,False,True,1,0,2,stimulus2AFCnew_2IFCnew_2020_Mar_24_1702_601,stimulus2AFCnew_2IFCnew_2020_Mar_24_1702_602,False,1,2AFCnew,2020_Mar_24_1702,2IFCnew,
2IFCnew,31,0,31,0,-1,4,Yes,5,-1,Miss,0,1,0.7523802000214346,True,False,2,0,1,stimulus2AFCnew_2IFCnew_2020_Mar_24_1702_603,stimulus2AFCnew_2IFCnew_2020_Mar_24_1702_604,False,1,2AFCnew,2020_Mar_24_1702,2IFCnew,
2IFCnew,32,0,32,0,-1,4,Yes,5,-1,Miss,0,1,0.5188632000354119,True,False,2,0,1,stimulus2AFCnew_2IFCnew_2020_Mar_24_1702_605,stimulus2AFCnew_2IFCnew_2020_Mar_24_1702_606,False,1,2AFCnew,2020_Mar_24_1702,2IFCnew,
2IFCnew,33,0,33,0,0.28443360002711415,6,No,5,-1,Miss,0,1,0.4509495999664068,True,False,2,0,1,stimulus2AFCnew_2IFCnew_2020_Mar_24_1702_607,stimulus2AFCnew_2IFCnew_2020_Mar_24_1702_608,False,1,2AFCnew,2020_Mar_24_1702,2IFCnew,
2IFCnew,34,0,34,0,-1,1,No,5,-1,Hit,1,1,0.4358137999661267,True,False,1,0,1,stimulus2AFCnew_2IFCnew_2020_Mar_24_1702_609,stimulus2AFCnew_2IFCnew_2020_Mar_24_1702_610,False,1,2AFCnew,2020_Mar_24_1702,2IFCnew,
2IFCnew,35,0,35,0,-1,1,No,5,-1,Hit,1,1,0.38524899998446926,True,False,1,0,1,stimulus2AFCnew_2IFCnew_2020_Mar_24_1702_611,stimulus2AFCnew_2IFCnew_2020_Mar_24_1702_612,False,1,2AFCnew,2020_Mar_24_1702,2IFCnew,
2IFCnew,36,0,36,0,0.41878589999396354,2,Yes,5,-1,Correct Rejection,0,0,0.4366958999889903,False,True,2,0,2,stimulus2AFCnew_2IFCnew_2020_Mar_24_1702_613,stimulus2AFCnew_2IFCnew_2020_Mar_24_1702_614,False,1,2AFCnew,2020_Mar_24_1702,2IFCnew,
2IFCnew,37,0,37,0,-1,0,Yes,5,-1,No Answer,2,2,-1,False,True,0,0,2,stimulus2AFCnew_2IFCnew_2020_Mar_24_1702_615,stimulus2AFCnew_2IFCnew_2020_Mar_24_1702_616,False,1,2AFCnew,2020_Mar_24_1702,2IFCnew,
2IFCnew,38,0,38,0,0.5194443999789655,6,No,5,-1,Miss,0,1,0.40204509999603033,True,False,2,0,1,stimulus2AFCnew_2IFCnew_2020_Mar_24_1702_617,stimulus2AFCnew_2IFCnew_2020_Mar_24_1702_618,False,1,2AFCnew,2020_Mar_24_1702,2IFCnew,
2IFCnew,39,0,39,0,0.4509609999950044,1,No,5,-1,Hit,1,1,0.6346351999673061,True,False,1,0,1,stimulus2AFCnew_2IFCnew_2020_Mar_24_1702_619,stimulus2AFCnew_2IFCnew_2020_Mar_24_1702_620,False,1,2AFCnew,2020_Mar_24_1702,2IFCnew,
2IFCnew,40,0,40,0,-1,1,No,5,-1,Hit,1,1,0.5179964000126347,True,False,1,0,1,stimulus2AFCnew_2IFCnew_2020_Mar_24_1702_621,stimulus2AFCnew_2IFCnew_2020_Mar_24_1702_622,False,1,2AFCnew,2020_Mar_24_1702,2IFCnew,
2IFCnew,41,0,41,0,-1,3,No,5,-1,Correct Rejection,0,0,0.4373426000238396,False,True,2,0,2,stimulus2AFCnew_2IFCnew_2020_Mar_24_1702_623,stimulus2AFCnew_2IFCnew_2020_Mar_24_1702_624,False,1,2AFCnew,2020_Mar_24_1702,2IFCnew,
2IFCnew,42,0,42,0,-1,3,No,5,-1,Correct Rejection,0,0,0.40198289998807013,False,True,2,0,2,stimulus2AFCnew_2IFCnew_2020_Mar_24_1702_625,stimulus2AFCnew_2IFCnew_2020_Mar_24_1702_626,False,1,2AFCnew,2020_Mar_24_1702,2IFCnew,
2IFCnew,43,0,43,0,0.4350420999689959,2,Yes,5,-1,Correct Rejection,0,0,0.4323629999998957,False,True,2,0,2,stimulus2AFCnew_2IFCnew_2020_Mar_24_1702_627,stimulus2AFCnew_2IFCnew_2020_Mar_24_1702_628,False,1,2AFCnew,2020_Mar_24_1702,2IFCnew,
2IFCnew,44,0,44,0,-1,1,Yes,5,-1,Hit,1,1,0.4849609999801032,True,False,1,0,1,stimulus2AFCnew_2IFCnew_2020_Mar_24_1702_629,stimulus2AFCnew_2IFCnew_2020_Mar_24_1702_630,False,1,2AFCnew,2020_Mar_24_1702,2IFCnew,
2IFCnew,0,0,0,0,0.41751170001225546,6,No,3,-1,Miss,0,1,0.3851896999985911,True,False,2,0,1,stimulus2AFCnew_2IFCnew_2020_Mar_24_1702_631,stimulus2AFCnew_2IFCnew_2020_Mar_24_1702_632,False,1,2AFCnew,2020_Mar_24_1702,2IFCnew,
2IFCnew,1,0,1,0,0.301520100038033,6,No,3,-1,Miss,0,1,0.35146780003560707,True,False,2,0,1,stimulus2AFCnew_2IFCnew_2020_Mar_24_1702_633,stimulus2AFCnew_2IFCnew_2020_Mar_24_1702_634,False,1,2AFCnew,2020_Mar_24_1702,2IFCnew,
2IFCnew,2,0,2,0,-1,3,No,3,-1,Correct Rejection,0,0,0.6861300999880768,False,True,2,0,2,stimulus2AFCnew_2IFCnew_2020_Mar_24_1702_635,stimulus2AFCnew_2IFCnew_2020_Mar_24_1702_636,False,1,2AFCnew,2020_Mar_24_1702,2IFCnew,
2IFCnew,3,0,3,0,0.2683577000279911,6,No,3,-1,Miss,0,1,0.3823382999980822,True,False,2,0,1,stimulus2AFCnew_2IFCnew_2020_Mar_24_1702_637,stimulus2AFCnew_2IFCnew_2020_Mar_24_1702_638,False,1,2AFCnew,2020_Mar_24_1702,2IFCnew,
2IFCnew,4,0,4,0,0.28491439996287227,3,No,3,-1,False Alarm,1,0,0.4030571000184864,False,True,1,0,2,stimulus2AFCnew_2IFCnew_2020_Mar_24_1702_639,stimulus2AFCnew_2IFCnew_2020_Mar_24_1702_640,False,1,2AFCnew,2020_Mar_24_1702,2IFCnew,
2IFCnew,5,0,5,0,-1,4,No,3,-1,Miss,0,1,0.4365717999753542,True,False,2,0,1,stimulus2AFCnew_2IFCnew_2020_Mar_24_1702_641,stimulus2AFCnew_2IFCnew_2020_Mar_24_1702_642,False,1,2AFCnew,2020_Mar_24_1702,2IFCnew,
2IFCnew,6,0,6,0,0.31877549999626353,2,Yes,3,-1,Correct Rejection,0,0,0.3341270000091754,False,True,2,0,2,stimulus2AFCnew_2IFCnew_2020_Mar_24_1702_643,stimulus2AFCnew_2IFCnew_2020_Mar_24_1702_644,False,1,2AFCnew,2020_Mar_24_1702,2IFCnew,
2IFCnew,7,0,7,0,-1,1,Yes,3,-1,Hit,1,1,0.5347834999556653,True,False,1,0,1,stimulus2AFCnew_2IFCnew_2020_Mar_24_1702_645,stimulus2AFCnew_2IFCnew_2020_Mar_24_1702_646,False,1,2AFCnew,2020_Mar_24_1702,2IFCnew,
2IFCnew,8,0,8,0,0.31564200000138953,5,Yes,3,-1,False Alarm,1,0,0.40167350001866,False,True,1,0,2,stimulus2AFCnew_2IFCnew_2020_Mar_24_1702_647,stimulus2AFCnew_2IFCnew_2020_Mar_24_1702_648,False,1,2AFCnew,2020_Mar_24_1702,2IFCnew,
2IFCnew,9,0,9,0,0.28405410004779696,7,Yes,3,-1,Hit,1,1,0.36813429999165237,True,False,1,0,1,stimulus2AFCnew_2IFCnew_2020_Mar_24_1702_649,stimulus2AFCnew_2IFCnew_2020_Mar_24_1702_650,False,1,2AFCnew,2020_Mar_24_1702,2IFCnew,
2IFCnew,10,0,10,0,-1,1,Yes,3,-1,Hit,1,1,0.2859345999895595,True,False,1,0,1,stimulus2AFCnew_2IFCnew_2020_Mar_24_1702_651,stimulus2AFCnew_2IFCnew_2020_Mar_24_1702_652,False,1,2AFCnew,2020_Mar_24_1702,2IFCnew,
2IFCnew,11,0,11,0,-1,1,Yes,3,-1,Hit,1,1,0.4998873000149615,True,False,1,0,1,stimulus2AFCnew_2IFCnew_2020_Mar_24_1702_653,stimulus2AFCnew_2IFCnew_2020_Mar_24_1702_654,False,1,2AFCnew,2020_Mar_24_1702,2IFCnew,
2IFCnew,12,0,12,0,0.5176233000238426,8,No,3,-1,Correct Rejection,0,0,0.48546750005334616,False,True,2,0,2,stimulus2AFCnew_2IFCnew_2020_Mar_24_1702_655,stimulus2AFCnew_2IFCnew_2020_Mar_24_1702_656,False,1,2AFCnew,2020_Mar_24_1702,2IFCnew,
2IFCnew,13,0,13,0,0.3346004000050016,8,No,3,-1,Correct Rejection,0,0,0.3516916999942623,False,True,2,0,2,stimulus2AFCnew_2IFCnew_2020_Mar_24_1702_657,stimulus2AFCnew_2IFCnew_2020_Mar_24_1702_658,False,1,2AFCnew,2020_Mar_24_1702,2IFCnew,
2IFCnew,14,0,14,0,-1,1,No,3,-1,Hit,1,1,0.3003247000160627,True,False,1,0,1,stimulus2AFCnew_2IFCnew_2020_Mar_24_1702_659,stimulus2AFCnew_2IFCnew_2020_Mar_24_1702_660,False,1,2AFCnew,2020_Mar_24_1702,2IFCnew,
2IFCnew,15,0,15,0,0.40181910002138466,6,No,3,-1,Miss,0,1,0.43487050000112504,True,False,2,0,1,stimulus2AFCnew_2IFCnew_2020_Mar_24_1702_661,stimulus2AFCnew_2IFCnew_2020_Mar_24_1702_662,False,1,2AFCnew,2020_Mar_24_1702,2IFCnew,
2IFCnew,16,0,16,0,-1,0,No,3,-1,No Answer,2,2,-1,False,True,0,0,2,stimulus2AFCnew_2IFCnew_2020_Mar_24_1702_663,stimulus2AFCnew_2IFCnew_2020_Mar_24_1702_664,False,1,2AFCnew,2020_Mar_24_1702,2IFCnew,
2IFCnew,17,0,17,0,-1,3,No,3,-1,Correct Rejection,0,0,0.484880100004375,False,True,2,0,2,stimulus2AFCnew_2IFCnew_2020_Mar_24_1702_665,stimulus2AFCnew_2IFCnew_2020_Mar_24_1702_666,False,1,2AFCnew,2020_Mar_24_1702,2IFCnew,
2IFCnew,18,0,18,0,-1,3,No,3,-1,Correct Rejection,0,0,0.2856952999718487,False,True,2,0,2,stimulus2AFCnew_2IFCnew_2020_Mar_24_1702_667,stimulus2AFCnew_2IFCnew_2020_Mar_24_1702_668,False,1,2AFCnew,2020_Mar_24_1702,2IFCnew,
2IFCnew,19,0,19,0,0.40158200002042577,8,No,3,-1,Correct Rejection,0,0,0.48447560000931844,False,True,2,0,2,stimulus2AFCnew_2IFCnew_2020_Mar_24_1702_669,stimulus2AFCnew_2IFCnew_2020_Mar_24_1702_670,False,1,2AFCnew,2020_Mar_24_1702,2IFCnew,
2IFCnew,20,0,20,0,0.6497974999947473,8,No,3,-1,Correct Rejection,0,0,0.2669694000505842,False,True,2,0,2,stimulus2AFCnew_2IFCnew_2020_Mar_24_1702_671,stimulus2AFCnew_2IFCnew_2020_Mar_24_1702_672,False,1,2AFCnew,2020_Mar_24_1702,2IFCnew,
2IFCnew,21,0,21,0,-1,1,No,3,-1,Hit,1,1,0.6363369000027888,True,False,1,0,1,stimulus2AFCnew_2IFCnew_2020_Mar_24_1702_673,stimulus2AFCnew_2IFCnew_2020_Mar_24_1702_674,False,1,2AFCnew,2020_Mar_24_1702,2IFCnew,
2IFCnew,22,0,22,0,-1,3,No,3,-1,Correct Rejection,0,0,0.5511870000045747,False,True,2,0,2,stimulus2AFCnew_2IFCnew_2020_Mar_24_1702_675,stimulus2AFCnew_2IFCnew_2020_Mar_24_1702_676,False,1,2AFCnew,2020_Mar_24_1702,2IFCnew,
2IFCnew,23,0,23,0,-1,4,No,3,-1,Miss,0,1,0.4336737999692559,True,False,2,0,1,stimulus2AFCnew_2IFCnew_2020_Mar_24_1702_677,stimulus2AFCnew_2IFCnew_2020_Mar_24_1702_678,False,1,2AFCnew,2020_Mar_24_1702,2IFCnew,
2IFCnew,24,0,24,0,-1,2,No,3,-1,False Alarm,1,0,0.21915860002627596,False,True,1,0,2,stimulus2AFCnew_2IFCnew_2020_Mar_24_1702_679,stimulus2AFCnew_2IFCnew_2020_Mar_24_1702_680,False,1,2AFCnew,2020_Mar_24_1702,2IFCnew,
2IFCnew,25,0,25,0,0.43601280002621934,8,No,3,-1,Correct Rejection,0,0,0.4180655000382103,False,True,2,0,2,stimulus2AFCnew_2IFCnew_2020_Mar_24_1702_681,stimulus2AFCnew_2IFCnew_2020_Mar_24_1702_682,False,1,2AFCnew,2020_Mar_24_1702,2IFCnew,
2IFCnew,26,0,26,0,0.4009440999943763,1,No,3,-1,Hit,1,1,0.33601139998063445,True,False,1,0,1,stimulus2AFCnew_2IFCnew_2020_Mar_24_1702_683,stimulus2AFCnew_2IFCnew_2020_Mar_24_1702_684,False,1,2AFCnew,2020_Mar_24_1702,2IFCnew,
2IFCnew,27,0,27,0,0.250628899957519,6,No,3,-1,Miss,0,1,0.43519370001740754,True,False,2,0,1,stimulus2AFCnew_2IFCnew_2020_Mar_24_1702_685,stimulus2AFCnew_2IFCnew_2020_Mar_24_1702_686,False,1,2AFCnew,2020_Mar_24_1702,2IFCnew,
2IFCnew,28,0,28,0,0.3011183000053279,6,No,3,-1,Miss,0,1,0.46772770001553,True,False,2,0,1,stimulus2AFCnew_2IFCnew_2020_Mar_24_1702_687,stimulus2AFCnew_2IFCnew_2020_Mar_24_1702_688,False,1,2AFCnew,2020_Mar_24_1702,2IFCnew,
2IFCnew,29,0,29,0,0.39861370000289753,1,No,3,-1,Hit,1,1,0.5195058999815956,True,False,1,0,1,stimulus2AFCnew_2IFCnew_2020_Mar_24_1702_689,stimulus2AFCnew_2IFCnew_2020_Mar_24_1702_690,False,1,2AFCnew,2020_Mar_24_1702,2IFCnew,
2IFCnew,30,0,30,0,0.5325498000020161,8,No,3,-1,Correct Rejection,0,0,0.4351314000086859,False,True,2,0,2,stimulus2AFCnew_2IFCnew_2020_Mar_24_1702_691,stimulus2AFCnew_2IFCnew_2020_Mar_24_1702_692,False,1,2AFCnew,2020_Mar_24_1702,2IFCnew,
2IFCnew,31,0,31,0,0.2500249999575317,3,No,3,-1,False Alarm,1,0,0.5525588999735191,False,True,1,0,2,stimulus2AFCnew_2IFCnew_2020_Mar_24_1702_693,stimulus2AFCnew_2IFCnew_2020_Mar_24_1702_694,False,1,2AFCnew,2020_Mar_24_1702,2IFCnew,
2IFCnew,32,0,32,0,0.3674466999946162,2,Yes,3,-1,Correct Rejection,0,0,0.3659875000012107,False,True,2,0,2,stimulus2AFCnew_2IFCnew_2020_Mar_24_1702_695,stimulus2AFCnew_2IFCnew_2020_Mar_24_1702_696,False,1,2AFCnew,2020_Mar_24_1702,2IFCnew,
2IFCnew,33,0,33,0,-1,2,Yes,3,-1,False Alarm,1,0,0.618869400001131,False,True,1,0,2,stimulus2AFCnew_2IFCnew_2020_Mar_24_1702_697,stimulus2AFCnew_2IFCnew_2020_Mar_24_1702_698,False,1,2AFCnew,2020_Mar_24_1702,2IFCnew,
2IFCnew,34,0,34,0,0.3665779000148177,7,Yes,3,-1,Hit,1,1,0.45382319996133447,True,False,1,0,1,stimulus2AFCnew_2IFCnew_2020_Mar_24_1702_699,stimulus2AFCnew_2IFCnew_2020_Mar_24_1702_700,False,1,2AFCnew,2020_Mar_24_1702,2IFCnew,
2IFCnew,35,0,35,0,0.16726249997736886,5,Yes,3,-1,False Alarm,1,0,0.11890579998726025,False,True,1,0,2,stimulus2AFCnew_2IFCnew_2020_Mar_24_1702_701,stimulus2AFCnew_2IFCnew_2020_Mar_24_1702_702,False,1,2AFCnew,2020_Mar_24_1702,2IFCnew,
2IFCnew,36,0,36,0,0.31808930000988767,4,Yes,3,-1,Miss,0,1,0.26777859998401254,True,False,2,0,1,stimulus2AFCnew_2IFCnew_2020_Mar_24_1702_703,stimulus2AFCnew_2IFCnew_2020_Mar_24_1702_704,False,1,2AFCnew,2020_Mar_24_1702,2IFCnew,
2IFCnew,37,0,37,0,-1,3,Yes,3,-1,Correct Rejection,0,0,0.8192533999681473,False,True,2,0,2,stimulus2AFCnew_2IFCnew_2020_Mar_24_1702_705,stimulus2AFCnew_2IFCnew_2020_Mar_24_1702_706,False,1,2AFCnew,2020_Mar_24_1702,2IFCnew,
2IFCnew,38,0,38,0,-1,3,Yes,3,-1,Correct Rejection,0,0,0.3681082999682985,False,True,2,0,2,stimulus2AFCnew_2IFCnew_2020_Mar_24_1702_707,stimulus2AFCnew_2IFCnew_2020_Mar_24_1702_708,False,1,2AFCnew,2020_Mar_24_1702,2IFCnew,
2IFCnew,39,0,39,0,0.5026169999619015,8,No,3,-1,Correct Rejection,0,0,0.3164134999969974,False,True,2,0,2,stimulus2AFCnew_2IFCnew_2020_Mar_24_1702_709,stimulus2AFCnew_2IFCnew_2020_Mar_24_1702_710,False,1,2AFCnew,2020_Mar_24_1702,2IFCnew,
2IFCnew,40,0,40,0,0.4172678000177257,5,Yes,3,-1,False Alarm,1,0,0.33461439999518916,False,True,1,0,2,stimulus2AFCnew_2IFCnew_2020_Mar_24_1702_711,stimulus2AFCnew_2IFCnew_2020_Mar_24_1702_712,False,1,2AFCnew,2020_Mar_24_1702,2IFCnew,
2IFCnew,41,0,41,0,0.46759029995882884,8,No,3,-1,Correct Rejection,0,0,0.3845638000057079,False,True,2,0,2,stimulus2AFCnew_2IFCnew_2020_Mar_24_1702_713,stimulus2AFCnew_2IFCnew_2020_Mar_24_1702_714,False,1,2AFCnew,2020_Mar_24_1702,2IFCnew,
2IFCnew,42,0,42,0,0.3179249999811873,2,Yes,3,-1,Correct Rejection,0,0,0.1859806000138633,False,True,2,0,2,stimulus2AFCnew_2IFCnew_2020_Mar_24_1702_715,stimulus2AFCnew_2IFCnew_2020_Mar_24_1702_716,False,1,2AFCnew,2020_Mar_24_1702,2IFCnew,
2IFCnew,43,0,43,0,-1,1,Yes,3,-1,Hit,1,1,0.4679891000268981,True,False,1,0,1,stimulus2AFCnew_2IFCnew_2020_Mar_24_1702_717,stimulus2AFCnew_2IFCnew_2020_Mar_24_1702_718,False,1,2AFCnew,2020_Mar_24_1702,2IFCnew,
2IFCnew,44,0,44,0,0.3185916999937035,5,Yes,3,-1,False Alarm,1,0,0.5018990999669768,False,True,1,0,2,stimulus2AFCnew_2IFCnew_2020_Mar_24_1702_719,stimulus2AFCnew_2IFCnew_2020_Mar_24_1702_720,False,1,2AFCnew,2020_Mar_24_1702,2IFCnew,
2IFCnew,0,0,0,0,-1,0,Yes,6,-1,No Answer,2,2,-1,True,False,0,0,1,stimulus2AFCnew_2IFCnew_2020_Mar_24_1702_721,stimulus2AFCnew_2IFCnew_2020_Mar_24_1702_722,False,1,2AFCnew,2020_Mar_24_1702,2IFCnew,
2IFCnew,1,0,1,0,0.5508526000194252,2,Yes,6,-1,Correct Rejection,0,0,0.5671861000009812,False,True,2,0,2,stimulus2AFCnew_2IFCnew_2020_Mar_24_1702_723,stimulus2AFCnew_2IFCnew_2020_Mar_24_1702_724,False,1,2AFCnew,2020_Mar_24_1702,2IFCnew,
2IFCnew,2,0,2,0,-1,3,Yes,6,-1,Correct Rejection,0,0,0.45109680003952235,False,True,2,0,2,stimulus2AFCnew_2IFCnew_2020_Mar_24_1702_725,stimulus2AFCnew_2IFCnew_2020_Mar_24_1702_726,False,1,2AFCnew,2020_Mar_24_1702,2IFCnew,
2IFCnew,3,0,3,0,-1,3,Yes,6,-1,Correct Rejection,0,0,0.4178741999785416,False,True,2,0,2,stimulus2AFCnew_2IFCnew_2020_Mar_24_1702_727,stimulus2AFCnew_2IFCnew_2020_Mar_24_1702_728,False,1,2AFCnew,2020_Mar_24_1702,2IFCnew,
2IFCnew,4,0,4,0,0.4681239000055939,3,No,6,-1,False Alarm,1,0,0.4859872999950312,False,True,1,0,2,stimulus2AFCnew_2IFCnew_2020_Mar_24_1702_729,stimulus2AFCnew_2IFCnew_2020_Mar_24_1702_730,False,1,2AFCnew,2020_Mar_24_1702,2IFCnew,
2IFCnew,5,0,5,0,0.43496839998988435,5,Yes,6,-1,False Alarm,1,0,0.31793620000826195,False,True,1,0,2,stimulus2AFCnew_2IFCnew_2020_Mar_24_1702_731,stimulus2AFCnew_2IFCnew_2020_Mar_24_1702_732,False,1,2AFCnew,2020_Mar_24_1702,2IFCnew,
2IFCnew,6,0,6,0,-1,1,Yes,6,-1,Hit,1,1,0.43316620000405237,True,False,1,0,1,stimulus2AFCnew_2IFCnew_2020_Mar_24_1702_733,stimulus2AFCnew_2IFCnew_2020_Mar_24_1702_734,False,1,2AFCnew,2020_Mar_24_1702,2IFCnew,
2IFCnew,7,0,7,0,0.21667280001565814,6,No,6,-1,Miss,0,1,0.38517849997151643,True,False,2,0,1,stimulus2AFCnew_2IFCnew_2020_Mar_24_1702_735,stimulus2AFCnew_2IFCnew_2020_Mar_24_1702_736,False,1,2AFCnew,2020_Mar_24_1702,2IFCnew,
2IFCnew,8,0,8,0,0.3322688000043854,5,Yes,6,-1,False Alarm,1,0,0.4679216999793425,False,True,1,0,2,stimulus2AFCnew_2IFCnew_2020_Mar_24_1702_737,stimulus2AFCnew_2IFCnew_2020_Mar_24_1702_738,False,1,2AFCnew,2020_Mar_24_1702,2IFCnew,
2IFCnew,9,0,9,0,0.4503063999582082,1,No,6,-1,Hit,1,1,0.43368780001765117,True,False,1,0,1,stimulus2AFCnew_2IFCnew_2020_Mar_24_1702_739,stimulus2AFCnew_2IFCnew_2020_Mar_24_1702_740,False,1,2AFCnew,2020_Mar_24_1702,2IFCnew,
2IFCnew,10,0,10,0,-1,1,No,6,-1,Hit,1,1,0.450801600003615,True,False,1,0,1,stimulus2AFCnew_2IFCnew_2020_Mar_24_1702_741,stimulus2AFCnew_2IFCnew_2020_Mar_24_1702_742,False,1,2AFCnew,2020_Mar_24_1702,2IFCnew,
2IFCnew,11,0,11,0,-1,1,No,6,-1,Hit,1,1,0.3511832000222057,True,False,1,0,1,stimulus2AFCnew_2IFCnew_2020_Mar_24_1702_743,stimulus2AFCnew_2IFCnew_2020_Mar_24_1702_744,False,1,2AFCnew,2020_Mar_24_1702,2IFCnew,
2IFCnew,12,0,12,0,0.4028540000435896,3,No,6,-1,False Alarm,1,0,0.6173841000418179,False,True,1,0,2,stimulus2AFCnew_2IFCnew_2020_Mar_24_1702_745,stimulus2AFCnew_2IFCnew_2020_Mar_24_1702_746,False,1,2AFCnew,2020_Mar_24_1702,2IFCnew,
2IFCnew,13,0,13,0,0.28308490000199527,6,No,6,-1,Miss,0,1,0.7324871000018902,True,False,2,0,1,stimulus2AFCnew_2IFCnew_2020_Mar_24_1702_747,stimulus2AFCnew_2IFCnew_2020_Mar_24_1702_748,False,1,2AFCnew,2020_Mar_24_1702,2IFCnew,
2IFCnew,14,0,14,0,-1,1,No,6,-1,Hit,1,1,0.3693501999950968,True,False,1,0,1,stimulus2AFCnew_2IFCnew_2020_Mar_24_1702_749,stimulus2AFCnew_2IFCnew_2020_Mar_24_1702_750,False,1,2AFCnew,2020_Mar_24_1702,2IFCnew,
2IFCnew,15,0,15,0,-1,3,No,6,-1,Correct Rejection,0,0,0.4338422999717295,False,True,2,0,2,stimulus2AFCnew_2IFCnew_2020_Mar_24_1702_751,stimulus2AFCnew_2IFCnew_2020_Mar_24_1702_752,False,1,2AFCnew,2020_Mar_24_1702,2IFCnew,
2IFCnew,16,0,16,0,-1,3,No,6,-1,Correct Rejection,0,0,0.25181460002204403,False,True,2,0,2,stimulus2AFCnew_2IFCnew_2020_Mar_24_1702_753,stimulus2AFCnew_2IFCnew_2020_Mar_24_1702_754,False,1,2AFCnew,2020_Mar_24_1702,2IFCnew,
2IFCnew,17,0,17,0,-1,1,No,6,-1,Hit,1,1,0.40190429997164756,True,False,1,0,1,stimulus2AFCnew_2IFCnew_2020_Mar_24_1702_755,stimulus2AFCnew_2IFCnew_2020_Mar_24_1702_756,False,1,2AFCnew,2020_Mar_24_1702,2IFCnew,
2IFCnew,18,0,18,0,0.21819590002996847,5,Yes,6,-1,False Alarm,1,0,0.3524011999834329,False,True,1,0,2,stimulus2AFCnew_2IFCnew_2020_Mar_24_1702_757,stimulus2AFCnew_2IFCnew_2020_Mar_24_1702_758,False,1,2AFCnew,2020_Mar_24_1702,2IFCnew,
2IFCnew,19,0,19,0,-1,1,Yes,6,-1,Hit,1,1,0.4024277999997139,True,False,1,0,1,stimulus2AFCnew_2IFCnew_2020_Mar_24_1702_759,stimulus2AFCnew_2IFCnew_2020_Mar_24_1702_760,False,1,2AFCnew,2020_Mar_24_1702,2IFCnew,
2IFCnew,20,0,20,0,-1,1,Yes,6,-1,Hit,1,1,0.35059750004438683,True,False,1,0,1,stimulus2AFCnew_2IFCnew_2020_Mar_24_1702_761,stimulus2AFCnew_2IFCnew_2020_Mar_24_1702_762,False,1,2AFCnew,2020_Mar_24_1702,2IFCnew,
2IFCnew,21,0,21,0,0.3184479000046849,1,No,6,-1,Hit,1,1,0.3173782000085339,True,False,1,0,1,stimulus2AFCnew_2IFCnew_2020_Mar_24_1702_763,stimulus2AFCnew_2IFCnew_2020_Mar_24_1702_764,False,1,2AFCnew,2020_Mar_24_1702,2IFCnew,
2IFCnew,22,0,22,0,0.43376859999261796,2,Yes,6,-1,Correct Rejection,0,0,0.4514572000480257,False,True,2,0,2,stimulus2AFCnew_2IFCnew_2020_Mar_24_1702_765,stimulus2AFCnew_2IFCnew_2020_Mar_24_1702_766,False,1,2AFCnew,2020_Mar_24_1702,2IFCnew,
2IFCnew,23,0,23,0,-1,3,Yes,6,-1,Correct Rejection,0,0,0.48498320003272966,False,True,2,0,2,stimulus2AFCnew_2IFCnew_2020_Mar_24_1702_767,stimulus2AFCnew_2IFCnew_2020_Mar_24_1702_768,False,1,2AFCnew,2020_Mar_24_1702,2IFCnew,
2IFCnew,24,0,24,0,-1,3,Yes,6,-1,Correct Rejection,0,0,0.38529229996493086,False,True,2,0,2,stimulus2AFCnew_2IFCnew_2020_Mar_24_1702_769,stimulus2AFCnew_2IFCnew_2020_Mar_24_1702_770,False,1,2AFCnew,2020_Mar_24_1702,2IFCnew,
2IFCnew,25,0,25,0,0.20085089997155592,6,No,6,-1,Miss,0,1,0.33595510001759976,True,False,2,0,1,stimulus2AFCnew_2IFCnew_2020_Mar_24_1702_771,stimulus2AFCnew_2IFCnew_2020_Mar_24_1702_772,False,1,2AFCnew,2020_Mar_24_1702,2IFCnew,
2IFCnew,26,0,26,0,-1,1,No,6,-1,Hit,1,1,0.30105329997604713,True,False,1,0,1,stimulus2AFCnew_2IFCnew_2020_Mar_24_1702_773,stimulus2AFCnew_2IFCnew_2020_Mar_24_1702_774,False,1,2AFCnew,2020_Mar_24_1702,2IFCnew,
2IFCnew,27,0,27,0,-1,1,No,6,-1,Hit,1,1,0.46652389998780563,True,False,1,0,1,stimulus2AFCnew_2IFCnew_2020_Mar_24_1702_775,stimulus2AFCnew_2IFCnew_2020_Mar_24_1702_776,False,1,2AFCnew,2020_Mar_24_1702,2IFCnew,
2IFCnew,28,0,28,0,-1,1,No,6,-1,Hit,1,1,0.4021877000341192,True,False,1,0,1,stimulus2AFCnew_2IFCnew_2020_Mar_24_1702_777,stimulus2AFCnew_2IFCnew_2020_Mar_24_1702_778,False,1,2AFCnew,2020_Mar_24_1702,2IFCnew,
2IFCnew,29,0,29,0,-1,3,No,6,-1,Correct Rejection,0,0,0.5200492999865673,False,True,2,0,2,stimulus2AFCnew_2IFCnew_2020_Mar_24_1702_779,stimulus2AFCnew_2IFCnew_2020_Mar_24_1702_780,False,1,2AFCnew,2020_Mar_24_1702,2IFCnew,
2IFCnew,30,0,30,0,-1,1,No,6,-1,Hit,1,1,0.3166071000159718,True,False,1,0,1,stimulus2AFCnew_2IFCnew_2020_Mar_24_1702_781,stimulus2AFCnew_2IFCnew_2020_Mar_24_1702_782,False,1,2AFCnew,2020_Mar_24_1702,2IFCnew,
2IFCnew,31,0,31,0,0.6355077999760397,2,Yes,6,-1,Correct Rejection,0,0,0.31880330003332347,False,True,2,0,2,stimulus2AFCnew_2IFCnew_2020_Mar_24_1702_783,stimulus2AFCnew_2IFCnew_2020_Mar_24_1702_784,False,1,2AFCnew,2020_Mar_24_1702,2IFCnew,
2IFCnew,32,0,32,0,0.35122040001442656,5,Yes,6,-1,False Alarm,1,0,0.35258150001754984,False,True,1,0,2,stimulus2AFCnew_2IFCnew_2020_Mar_24_1702_785,stimulus2AFCnew_2IFCnew_2020_Mar_24_1702_786,False,1,2AFCnew,2020_Mar_24_1702,2IFCnew,
2IFCnew,33,0,33,0,0.19907700002659112,6,No,6,-1,Miss,0,1,0.32084140001097694,True,False,2,0,1,stimulus2AFCnew_2IFCnew_2020_Mar_24_1702_787,stimulus2AFCnew_2IFCnew_2020_Mar_24_1702_788,False,1,2AFCnew,2020_Mar_24_1702,2IFCnew,
2IFCnew,34,0,34,0,-1,1,No,6,-1,Hit,1,1,0.3358956000301987,True,False,1,0,1,stimulus2AFCnew_2IFCnew_2020_Mar_24_1702_789,stimulus2AFCnew_2IFCnew_2020_Mar_24_1702_790,False,1,2AFCnew,2020_Mar_24_1702,2IFCnew,
2IFCnew,35,0,35,0,0.2499017000081949,5,Yes,6,-1,False Alarm,1,0,0.28423560003284365,False,True,1,0,2,stimulus2AFCnew_2IFCnew_2020_Mar_24_1702_791,stimulus2AFCnew_2IFCnew_2020_Mar_24_1702_792,False,1,2AFCnew,2020_Mar_24_1702,2IFCnew,
2IFCnew,36,0,36,0,0.3500365000218153,8,No,6,-1,Correct Rejection,0,0,0.30206070002168417,False,True,2,0,2,stimulus2AFCnew_2IFCnew_2020_Mar_24_1702_793,stimulus2AFCnew_2IFCnew_2020_Mar_24_1702_794,False,1,2AFCnew,2020_Mar_24_1702,2IFCnew,
2IFCnew,37,0,37,0,0.06782370002474636,6,No,6,-1,Miss,0,1,0.3184103000094183,True,False,2,0,1,stimulus2AFCnew_2IFCnew_2020_Mar_24_1702_795,stimulus2AFCnew_2IFCnew_2020_Mar_24_1702_796,False,1,2AFCnew,2020_Mar_24_1702,2IFCnew,
2IFCnew,38,0,38,0,-1,3,No,6,-1,Correct Rejection,0,0,0.5682307999813929,False,True,2,0,2,stimulus2AFCnew_2IFCnew_2020_Mar_24_1702_797,stimulus2AFCnew_2IFCnew_2020_Mar_24_1702_798,False,1,2AFCnew,2020_Mar_24_1702,2IFCnew,
2IFCnew,39,0,39,0,0.3189328999724239,2,Yes,6,-1,Correct Rejection,0,0,0.4333747000200674,False,True,2,0,2,stimulus2AFCnew_2IFCnew_2020_Mar_24_1702_799,stimulus2AFCnew_2IFCnew_2020_Mar_24_1702_800,False,1,2AFCnew,2020_Mar_24_1702,2IFCnew,
2IFCnew,40,0,40,0,-1,1,Yes,6,-1,Hit,1,1,0.48503339994931594,True,False,1,0,1,stimulus2AFCnew_2IFCnew_2020_Mar_24_1702_801,stimulus2AFCnew_2IFCnew_2020_Mar_24_1702_802,False,1,2AFCnew,2020_Mar_24_1702,2IFCnew,
2IFCnew,41,0,41,0,-1,1,Yes,6,-1,Hit,1,1,0.41463989997282624,True,False,1,0,1,stimulus2AFCnew_2IFCnew_2020_Mar_24_1702_803,stimulus2AFCnew_2IFCnew_2020_Mar_24_1702_804,False,1,2AFCnew,2020_Mar_24_1702,2IFCnew,
2IFCnew,42,0,42,0,-1,3,Yes,6,-1,Correct Rejection,0,0,0.40121019998332486,False,True,2,0,2,stimulus2AFCnew_2IFCnew_2020_Mar_24_1702_805,stimulus2AFCnew_2IFCnew_2020_Mar_24_1702_806,False,1,2AFCnew,2020_Mar_24_1702,2IFCnew,
2IFCnew,43,0,43,0,0.6209501000121236,6,No,6,-1,Miss,0,1,0.5354449000442401,True,False,2,0,1,stimulus2AFCnew_2IFCnew_2020_Mar_24_1702_807,stimulus2AFCnew_2IFCnew_2020_Mar_24_1702_808,False,1,2AFCnew,2020_Mar_24_1702,2IFCnew,
2IFCnew,44,0,44,0,0.5365944000077434,5,Yes,6,-1,False Alarm,1,0,0.3681848000269383,False,True,1,0,2,stimulus2AFCnew_2IFCnew_2020_Mar_24_1702_809,stimulus2AFCnew_2IFCnew_2020_Mar_24_1702_810,False,1,2AFCnew,2020_Mar_24_1702,2IFCnew,
2IFCnew,0,0,0,0,-1,0,Yes,7,-1,No Answer,2,2,-1,False,True,0,0,2,stimulus2AFCnew_2IFCnew_2020_Mar_24_1702_811,stimulus2AFCnew_2IFCnew_2020_Mar_24_1702_812,False,1,2AFCnew,2020_Mar_24_1702,2IFCnew,
2IFCnew,1,0,1,0,0.6195149999693967,8,No,7,-1,Correct Rejection,0,0,0.43484559998614714,False,True,2,0,2,stimulus2AFCnew_2IFCnew_2020_Mar_24_1702_813,stimulus2AFCnew_2IFCnew_2020_Mar_24_1702_814,False,1,2AFCnew,2020_Mar_24_1702,2IFCnew,
2IFCnew,2,0,2,0,0.10132149996934459,5,Yes,7,-1,False Alarm,1,0,0.28442129999166355,False,True,1,0,2,stimulus2AFCnew_2IFCnew_2020_Mar_24_1702_815,stimulus2AFCnew_2IFCnew_2020_Mar_24_1702_816,False,1,2AFCnew,2020_Mar_24_1702,2IFCnew,
2IFCnew,3,0,3,0,-1,1,Yes,7,-1,Hit,1,1,0.4184984999592416,True,False,1,0,1,stimulus2AFCnew_2IFCnew_2020_Mar_24_1702_817,stimulus2AFCnew_2IFCnew_2020_Mar_24_1702_818,False,1,2AFCnew,2020_Mar_24_1702,2IFCnew,
2IFCnew,4,0,4,0,-1,1,Yes,7,-1,Hit,1,1,0.3679806999862194,True,False,1,0,1,stimulus2AFCnew_2IFCnew_2020_Mar_24_1702_819,stimulus2AFCnew_2IFCnew_2020_Mar_24_1702_820,False,1,2AFCnew,2020_Mar_24_1702,2IFCnew,
2IFCnew,5,0,5,0,0.3341665000189096,5,Yes,7,-1,False Alarm,1,0,0.36910919996444136,False,True,1,0,2,stimulus2AFCnew_2IFCnew_2020_Mar_24_1702_821,stimulus2AFCnew_2IFCnew_2020_Mar_24_1702_822,False,1,2AFCnew,2020_Mar_24_1702,2IFCnew,
2IFCnew,6,0,6,0,0.5346857999684289,1,No,7,-1,Hit,1,1,0.5177932000369765,True,False,1,0,1,stimulus2AFCnew_2IFCnew_2020_Mar_24_1702_823,stimulus2AFCnew_2IFCnew_2020_Mar_24_1702_824,False,1,2AFCnew,2020_Mar_24_1702,2IFCnew,
2IFCnew,7,0,7,0,-1,3,No,7,-1,Correct Rejection,0,0,0.4335244999965653,False,True,2,0,2,stimulus2AFCnew_2IFCnew_2020_Mar_24_1702_825,stimulus2AFCnew_2IFCnew_2020_Mar_24_1702_826,False,1,2AFCnew,2020_Mar_24_1702,2IFCnew,
2IFCnew,8,0,8,0,0.16752529999939725,5,Yes,7,-1,False Alarm,1,0,0.3700659000314772,False,True,1,0,2,stimulus2AFCnew_2IFCnew_2020_Mar_24_1702_827,stimulus2AFCnew_2IFCnew_2020_Mar_24_1702_828,False,1,2AFCnew,2020_Mar_24_1702,2IFCnew,
2IFCnew,9,0,9,0,0.5005254999850877,5,Yes,7,-1,False Alarm,1,0,0.5370627000229433,False,True,1,0,2,stimulus2AFCnew_2IFCnew_2020_Mar_24_1702_829,stimulus2AFCnew_2IFCnew_2020_Mar_24_1702_830,False,1,2AFCnew,2020_Mar_24_1702,2IFCnew,
2IFCnew,10,0,10,0,0.43383349996292964,6,No,7,-1,Miss,0,1,0.6669075000099838,True,False,2,0,1,stimulus2AFCnew_2IFCnew_2020_Mar_24_1702_831,stimulus2AFCnew_2IFCnew_2020_Mar_24_1702_832,False,1,2AFCnew,2020_Mar_24_1702,2IFCnew,
2IFCnew,11,0,11,0,0.36810140003217384,1,No,7,-1,Hit,1,1,0.46745120000559837,True,False,1,0,1,stimulus2AFCnew_2IFCnew_2020_Mar_24_1702_833,stimulus2AFCnew_2IFCnew_2020_Mar_24_1702_834,False,1,2AFCnew,2020_Mar_24_1702,2IFCnew,
2IFCnew,12,0,12,0,-1,1,No,7,-1,Hit,1,1,0.5021788000012748,True,False,1,0,1,stimulus2AFCnew_2IFCnew_2020_Mar_24_1702_835,stimulus2AFCnew_2IFCnew_2020_Mar_24_1702_836,False,1,2AFCnew,2020_Mar_24_1702,2IFCnew,
2IFCnew,13,0,13,0,-1,3,No,7,-1,Correct Rejection,0,0,0.36825690005207434,False,True,2,0,2,stimulus2AFCnew_2IFCnew_2020_Mar_24_1702_837,stimulus2AFCnew_2IFCnew_2020_Mar_24_1702_838,False,1,2AFCnew,2020_Mar_24_1702,2IFCnew,
2IFCnew,14,0,14,0,-1,3,No,7,-1,Correct Rejection,0,0,0.36895940004615113,False,True,2,0,2,stimulus2AFCnew_2IFCnew_2020_Mar_24_1702_839,stimulus2AFCnew_2IFCnew_2020_Mar_24_1702_840,False,1,2AFCnew,2020_Mar_24_1702,2IFCnew,
2IFCnew,15,0,15,0,0.283985499991104,6,No,7,-1,Miss,0,1,0.30262520001269877,True,False,2,0,1,stimulus2AFCnew_2IFCnew_2020_Mar_24_1702_841,stimulus2AFCnew_2IFCnew_2020_Mar_24_1702_842,False,1,2AFCnew,2020_Mar_24_1702,2IFCnew,
2IFCnew,16,0,16,0,-1,3,No,7,-1,Correct Rejection,0,0,0.36716530000558123,False,True,2,0,2,stimulus2AFCnew_2IFCnew_2020_Mar_24_1702_843,stimulus2AFCnew_2IFCnew_2020_Mar_24_1702_844,False,1,2AFCnew,2020_Mar_24_1702,2IFCnew,
2IFCnew,17,0,17,0,-1,3,No,7,-1,Correct Rejection,0,0,0.31736719998298213,False,True,2,0,2,stimulus2AFCnew_2IFCnew_2020_Mar_24_1702_845,stimulus2AFCnew_2IFCnew_2020_Mar_24_1702_846,False,1,2AFCnew,2020_Mar_24_1702,2IFCnew,
2IFCnew,18,0,18,0,-1,3,No,7,-1,Correct Rejection,0,0,0.2513385000056587,False,True,2,0,2,stimulus2AFCnew_2IFCnew_2020_Mar_24_1702_847,stimulus2AFCnew_2IFCnew_2020_Mar_24_1702_848,False,1,2AFCnew,2020_Mar_24_1702,2IFCnew,
2IFCnew,19,0,19,0,0.34998639998957515,6,No,7,-1,Miss,0,1,0.23243489995365962,True,False,2,0,1,stimulus2AFCnew_2IFCnew_2020_Mar_24_1702_849,stimulus2AFCnew_2IFCnew_2020_Mar_24_1702_850,False,1,2AFCnew,2020_Mar_24_1702,2IFCnew,
2IFCnew,20,0,20,0,-1,0,No,7,-1,No Answer,2,2,-1,True,False,0,0,1,stimulus2AFCnew_2IFCnew_2020_Mar_24_1702_851,stimulus2AFCnew_2IFCnew_2020_Mar_24_1702_852,False,1,2AFCnew,2020_Mar_24_1702,2IFCnew,
2IFCnew,21,0,21,0,-1,1,No,7,-1,Hit,1,1,0.4020279999822378,True,False,1,0,1,stimulus2AFCnew_2IFCnew_2020_Mar_24_1702_853,stimulus2AFCnew_2IFCnew_2020_Mar_24_1702_854,False,1,2AFCnew,2020_Mar_24_1702,2IFCnew,
2IFCnew,22,0,22,0,-1,1,No,7,-1,Hit,1,1,0.43577510002069175,True,False,1,0,1,stimulus2AFCnew_2IFCnew_2020_Mar_24_1702_855,stimulus2AFCnew_2IFCnew_2020_Mar_24_1702_856,False,1,2AFCnew,2020_Mar_24_1702,2IFCnew,
2IFCnew,23,0,23,0,0.35097110003698617,2,Yes,7,-1,Correct Rejection,0,0,0.5184502000338398,False,True,2,0,2,stimulus2AFCnew_2IFCnew_2020_Mar_24_1702_857,stimulus2AFCnew_2IFCnew_2020_Mar_24_1702_858,False,1,2AFCnew,2020_Mar_24_1702,2IFCnew,
2IFCnew,24,0,24,0,-1,1,Yes,7,-1,Hit,1,1,0.5201847000280395,True,False,1,0,1,stimulus2AFCnew_2IFCnew_2020_Mar_24_1702_859,stimulus2AFCnew_2IFCnew_2020_Mar_24_1702_860,False,1,2AFCnew,2020_Mar_24_1702,2IFCnew,
2IFCnew,25,0,25,0,-1,1,Yes,7,-1,Hit,1,1,0.5194066999829374,True,False,1,0,1,stimulus2AFCnew_2IFCnew_2020_Mar_24_1702_861,stimulus2AFCnew_2IFCnew_2020_Mar_24_1702_862,False,1,2AFCnew,2020_Mar_24_1702,2IFCnew,
2IFCnew,26,0,26,0,0.3011840999824926,3,No,7,-1,False Alarm,1,0,0.4838117000181228,False,True,1,0,2,stimulus2AFCnew_2IFCnew_2020_Mar_24_1702_863,stimulus2AFCnew_2IFCnew_2020_Mar_24_1702_864,False,1,2AFCnew,2020_Mar_24_1702,2IFCnew,
2IFCnew,27,0,27,0,-1,1,No,7,-1,Hit,1,1,0.3185464999987744,True,False,1,0,1,stimulus2AFCnew_2IFCnew_2020_Mar_24_1702_865,stimulus2AFCnew_2IFCnew_2020_Mar_24_1702_866,False,1,2AFCnew,2020_Mar_24_1702,2IFCnew,
2IFCnew,28,0,28,0,0.36832250002771616,6,No,7,-1,Miss,0,1,0.5354965000296943,True,False,2,0,1,stimulus2AFCnew_2IFCnew_2020_Mar_24_1702_867,stimulus2AFCnew_2IFCnew_2020_Mar_24_1702_868,False,1,2AFCnew,2020_Mar_24_1702,2IFCnew,
2IFCnew,29,0,29,0,-1,3,No,7,-1,Correct Rejection,0,0,0.4682275999803096,False,True,2,0,2,stimulus2AFCnew_2IFCnew_2020_Mar_24_1702_869,stimulus2AFCnew_2IFCnew_2020_Mar_24_1702_870,False,1,2AFCnew,2020_Mar_24_1702,2IFCnew,
2IFCnew,30,0,30,0,-1,1,No,7,-1,Hit,1,1,0.4362121000303887,True,False,1,0,1,stimulus2AFCnew_2IFCnew_2020_Mar_24_1702_871,stimulus2AFCnew_2IFCnew_2020_Mar_24_1702_872,False,1,2AFCnew,2020_Mar_24_1702,2IFCnew,
2IFCnew,31,0,31,0,-1,3,No,7,-1,Correct Rejection,0,0,0.1998619000078179,False,True,2,0,2,stimulus2AFCnew_2IFCnew_2020_Mar_24_1702_873,stimulus2AFCnew_2IFCnew_2020_Mar_24_1702_874,False,1,2AFCnew,2020_Mar_24_1702,2IFCnew,
2IFCnew,32,0,32,0,-1,3,No,7,-1,Correct Rejection,0,0,0.25052600004710257,False,True,2,0,2,stimulus2AFCnew_2IFCnew_2020_Mar_24_1702_875,stimulus2AFCnew_2IFCnew_2020_Mar_24_1702_876,False,1,2AFCnew,2020_Mar_24_1702,2IFCnew,
2IFCnew,33,0,33,0,-1,3,No,7,-1,Correct Rejection,0,0,0.28317609999794513,False,True,2,0,2,stimulus2AFCnew_2IFCnew_2020_Mar_24_1702_877,stimulus2AFCnew_2IFCnew_2020_Mar_24_1702_878,False,1,2AFCnew,2020_Mar_24_1702,2IFCnew,
2IFCnew,34,0,34,0,0.5172286999877542,3,No,7,-1,False Alarm,1,0,0.25160220003454015,False,True,1,0,2,stimulus2AFCnew_2IFCnew_2020_Mar_24_1702_879,stimulus2AFCnew_2IFCnew_2020_Mar_24_1702_880,False,1,2AFCnew,2020_Mar_24_1702,2IFCnew,
2IFCnew,35,0,35,0,0.25104330002795905,3,No,7,-1,False Alarm,1,0,0.3181907999678515,False,True,1,0,2,stimulus2AFCnew_2IFCnew_2020_Mar_24_1702_881,stimulus2AFCnew_2IFCnew_2020_Mar_24_1702_882,False,1,2AFCnew,2020_Mar_24_1702,2IFCnew,
2IFCnew,36,0,36,0,-1,1,No,7,-1,Hit,1,1,0.35250599996652454,True,False,1,0,1,stimulus2AFCnew_2IFCnew_2020_Mar_24_1702_883,stimulus2AFCnew_2IFCnew_2020_Mar_24_1702_884,False,1,2AFCnew,2020_Mar_24_1702,2IFCnew,
2IFCnew,37,0,37,0,0.5012237000046298,6,No,7,-1,Miss,0,1,0.4318301999592222,True,False,2,0,1,stimulus2AFCnew_2IFCnew_2020_Mar_24_1702_885,stimulus2AFCnew_2IFCnew_2020_Mar_24_1702_886,False,1,2AFCnew,2020_Mar_24_1702,2IFCnew,
2IFCnew,38,0,38,0,0.11687000002712011,6,No,7,-1,Miss,0,1,0.3507149000070058,True,False,2,0,1,stimulus2AFCnew_2IFCnew_2020_Mar_24_1702_887,stimulus2AFCnew_2IFCnew_2020_Mar_24_1702_888,False,1,2AFCnew,2020_Mar_24_1702,2IFCnew,
2IFCnew,39,0,39,0,-1,0,No,7,-1,No Answer,2,2,-1,False,True,0,0,2,stimulus2AFCnew_2IFCnew_2020_Mar_24_1702_889,stimulus2AFCnew_2IFCnew_2020_Mar_24_1702_890,False,1,2AFCnew,2020_Mar_24_1702,2IFCnew,
2IFCnew,40,0,40,0,0.45069840003270656,2,Yes,7,-1,Correct Rejection,0,0,0.384210099990014,False,True,2,0,2,stimulus2AFCnew_2IFCnew_2020_Mar_24_1702_891,stimulus2AFCnew_2IFCnew_2020_Mar_24_1702_892,False,1,2AFCnew,2020_Mar_24_1702,2IFCnew,
2IFCnew,41,0,41,0,0.3502933999989182,1,No,7,-1,Hit,1,1,0.617400599992834,True,False,1,0,1,stimulus2AFCnew_2IFCnew_2020_Mar_24_1702_893,stimulus2AFCnew_2IFCnew_2020_Mar_24_1702_894,False,1,2AFCnew,2020_Mar_24_1702,2IFCnew,
2IFCnew,42,0,42,0,0.4181908000027761,2,Yes,7,-1,Correct Rejection,0,0,0.4346518999664113,False,True,2,0,2,stimulus2AFCnew_2IFCnew_2020_Mar_24_1702_895,stimulus2AFCnew_2IFCnew_2020_Mar_24_1702_896,False,1,2AFCnew,2020_Mar_24_1702,2IFCnew,
2IFCnew,43,0,43,0,-1,0,Yes,7,-1,No Answer,2,2,-1,False,True,0,0,2,stimulus2AFCnew_2IFCnew_2020_Mar_24_1702_897,stimulus2AFCnew_2IFCnew_2020_Mar_24_1702_898,False,1,2AFCnew,2020_Mar_24_1702,2IFCnew,
2IFCnew,44,0,44,0,0.41779720003250986,4,Yes,7,-1,Miss,0,1,0.4009224000037648,True,False,2,0,1,stimulus2AFCnew_2IFCnew_2020_Mar_24_1702_899,stimulus2AFCnew_2IFCnew_2020_Mar_24_1702_900,False,1,2AFCnew,2020_Mar_24_1702,2IFCnew,
2IFCnew,0,0,0,0,0.3841588000068441,8,No,1,-1,Correct Rejection,0,0,0.38343490002444014,False,True,2,0,2,stimulus2AFCnew_2IFCnew_2020_Mar_24_1702_901,stimulus2AFCnew_2IFCnew_2020_Mar_24_1702_902,False,1,2AFCnew,2020_Mar_24_1702,2IFCnew,
2IFCnew,1,0,1,0,0.4170886999927461,8,No,1,-1,Correct Rejection,0,0,0.3039629999548197,False,True,2,0,2,stimulus2AFCnew_2IFCnew_2020_Mar_24_1702_903,stimulus2AFCnew_2IFCnew_2020_Mar_24_1702_904,False,1,2AFCnew,2020_Mar_24_1702,2IFCnew,
2IFCnew,2,0,2,0,-1,2,No,1,-1,False Alarm,1,0,0.3497473999741487,False,True,1,0,2,stimulus2AFCnew_2IFCnew_2020_Mar_24_1702_905,stimulus2AFCnew_2IFCnew_2020_Mar_24_1702_906,False,1,2AFCnew,2020_Mar_24_1702,2IFCnew,
