Task,trials.thisRepN,trials.thisTrialN,trials.thisN,trials.thisIndex,time_response_second,response_2IFCnew,response_key2Interval_2IFCnew,signal_intensity,constant Value,response,time_response,signal_on_stimuluspos1,signal_on_stimuluspos2,first_answer,second_answer,stimulus_pos,stimulus_name_pos1,stimulus_name_pos2,random_intensity,session,participant,date,expName,
2IFCnew,0,0,0,0,-1,4,null,4,-1,Miss,0.40027660003397614,True,False,2,0,1,stimulus2AFCnew_2IFCnew_2020_Mar_26_1930_1,stimulus2AFCnew_2IFCnew_2020_Mar_26_1930_2,False,3,2AFCnew,2020_Mar_26_1930,2IFCnew,
2IFCnew,1,0,1,0,-1,1,null,4,-1,Hit,0.44959480001125485,True,False,1,0,1,stimulus2AFCnew_2IFCnew_2020_Mar_26_1930_3,stimulus2AFCnew_2IFCnew_2020_Mar_26_1930_4,False,3,2AFCnew,2020_Mar_26_1930,2IFCnew,
2IFCnew,2,0,2,0,0.40162639995105565,5,Yes,4,-1,False Alarm,0.383271099999547,False,True,1,1,2,stimulus2AFCnew_2IFCnew_2020_Mar_26_1930_5,stimulus2AFCnew_2IFCnew_2020_Mar_26_1930_6,False,3,2AFCnew,2020_Mar_26_1930,2IFCnew,
2IFCnew,3,0,3,0,-1,3,null,4,-1,Correct Rejection,0.33732679998502135,False,True,2,0,2,stimulus2AFCnew_2IFCnew_2020_Mar_26_1930_7,stimulus2AFCnew_2IFCnew_2020_Mar_26_1930_8,False,3,2AFCnew,2020_Mar_26_1930,2IFCnew,
2IFCnew,4,0,4,0,-1,3,null,4,-1,Correct Rejection,0.41730690002441406,False,True,2,0,2,stimulus2AFCnew_2IFCnew_2020_Mar_26_1930_9,stimulus2AFCnew_2IFCnew_2020_Mar_26_1930_10,False,3,2AFCnew,2020_Mar_26_1930,2IFCnew,
2IFCnew,5,0,5,0,0.5008298000320792,5,Yes,4,-1,False Alarm,0.40114420000463724,False,True,1,1,2,stimulus2AFCnew_2IFCnew_2020_Mar_26_1930_11,stimulus2AFCnew_2IFCnew_2020_Mar_26_1930_12,False,3,2AFCnew,2020_Mar_26_1930,2IFCnew,
2IFCnew,6,0,6,0,-1,1,null,4,-1,Hit,0.4172897000098601,True,False,1,0,1,stimulus2AFCnew_2IFCnew_2020_Mar_26_1930_13,stimulus2AFCnew_2IFCnew_2020_Mar_26_1930_14,False,3,2AFCnew,2020_Mar_26_1930,2IFCnew,
2IFCnew,7,0,7,0,-1,1,null,4,-1,Hit,0.4321876000612974,True,False,1,0,1,stimulus2AFCnew_2IFCnew_2020_Mar_26_1930_15,stimulus2AFCnew_2IFCnew_2020_Mar_26_1930_16,False,3,2AFCnew,2020_Mar_26_1930,2IFCnew,
2IFCnew,8,0,8,0,0.484647799981758,7,Yes,4,-1,Hit,0.4506802000105381,True,False,1,1,1,stimulus2AFCnew_2IFCnew_2020_Mar_26_1930_17,stimulus2AFCnew_2IFCnew_2020_Mar_26_1930_18,False,3,2AFCnew,2020_Mar_26_1930,2IFCnew,
2IFCnew,9,0,9,0,0.767785600037314,4,Yes,4,-1,Miss,0.2838789999950677,True,False,2,1,1,stimulus2AFCnew_2IFCnew_2020_Mar_26_1930_19,stimulus2AFCnew_2IFCnew_2020_Mar_26_1930_20,False,3,2AFCnew,2020_Mar_26_1930,2IFCnew,
2IFCnew,10,0,10,0,0.400687100016512,5,Yes,4,-1,False Alarm,0.31783119996543974,False,True,1,1,2,stimulus2AFCnew_2IFCnew_2020_Mar_26_1930_21,stimulus2AFCnew_2IFCnew_2020_Mar_26_1930_22,False,3,2AFCnew,2020_Mar_26_1930,2IFCnew,
2IFCnew,11,0,11,0,-1,1,null,4,-1,Hit,0.7819928999524564,True,False,1,0,1,stimulus2AFCnew_2IFCnew_2020_Mar_26_1930_23,stimulus2AFCnew_2IFCnew_2020_Mar_26_1930_24,False,3,2AFCnew,2020_Mar_26_1930,2IFCnew,
2IFCnew,12,0,12,0,-1,3,null,4,-1,Correct Rejection,0.4843154998961836,False,True,2,0,2,stimulus2AFCnew_2IFCnew_2020_Mar_26_1930_25,stimulus2AFCnew_2IFCnew_2020_Mar_26_1930_26,False,3,2AFCnew,2020_Mar_26_1930,2IFCnew,
2IFCnew,13,0,13,0,-1,3,null,4,-1,Correct Rejection,0.550730700022541,False,True,2,0,2,stimulus2AFCnew_2IFCnew_2020_Mar_26_1930_27,stimulus2AFCnew_2IFCnew_2020_Mar_26_1930_28,False,3,2AFCnew,2020_Mar_26_1930,2IFCnew,
2IFCnew,14,0,14,0,0.49952910002321005,5,Yes,4,-1,False Alarm,0.4344061999581754,False,True,1,1,2,stimulus2AFCnew_2IFCnew_2020_Mar_26_1930_29,stimulus2AFCnew_2IFCnew_2020_Mar_26_1930_30,False,3,2AFCnew,2020_Mar_26_1930,2IFCnew,
2IFCnew,15,0,15,0,0.38382409990299493,5,Yes,4,-1,False Alarm,0.7991373999975622,False,True,1,1,2,stimulus2AFCnew_2IFCnew_2020_Mar_26_1930_31,stimulus2AFCnew_2IFCnew_2020_Mar_26_1930_32,False,3,2AFCnew,2020_Mar_26_1930,2IFCnew,
2IFCnew,16,0,16,0,-1,1,null,4,-1,Hit,0.41756830003578216,True,False,1,0,1,stimulus2AFCnew_2IFCnew_2020_Mar_26_1930_33,stimulus2AFCnew_2IFCnew_2020_Mar_26_1930_34,False,3,2AFCnew,2020_Mar_26_1930,2IFCnew,
2IFCnew,17,0,17,0,-1,1,null,4,-1,Hit,0.4510255999630317,True,False,1,0,1,stimulus2AFCnew_2IFCnew_2020_Mar_26_1930_35,stimulus2AFCnew_2IFCnew_2020_Mar_26_1930_36,False,3,2AFCnew,2020_Mar_26_1930,2IFCnew,
2IFCnew,18,0,18,0,0.6006444999948144,2,Yes,4,-1,Correct Rejection,0.7679791999980807,False,True,2,1,2,stimulus2AFCnew_2IFCnew_2020_Mar_26_1930_37,stimulus2AFCnew_2IFCnew_2020_Mar_26_1930_38,False,3,2AFCnew,2020_Mar_26_1930,2IFCnew,
2IFCnew,19,0,19,0,-1,1,null,4,-1,Hit,0.6342587000690401,True,False,1,0,1,stimulus2AFCnew_2IFCnew_2020_Mar_26_1930_39,stimulus2AFCnew_2IFCnew_2020_Mar_26_1930_40,False,3,2AFCnew,2020_Mar_26_1930,2IFCnew,
2IFCnew,20,0,20,0,-1,1,null,4,-1,Hit,0.40095699997618794,True,False,1,0,1,stimulus2AFCnew_2IFCnew_2020_Mar_26_1930_41,stimulus2AFCnew_2IFCnew_2020_Mar_26_1930_42,False,3,2AFCnew,2020_Mar_26_1930,2IFCnew,
2IFCnew,21,0,21,0,0.45059210003819317,5,Yes,4,-1,False Alarm,0.3843350000679493,False,True,1,1,2,stimulus2AFCnew_2IFCnew_2020_Mar_26_1930_43,stimulus2AFCnew_2IFCnew_2020_Mar_26_1930_44,False,3,2AFCnew,2020_Mar_26_1930,2IFCnew,
2IFCnew,22,0,22,0,-1,1,null,4,-1,Hit,0.43393970001488924,True,False,1,0,1,stimulus2AFCnew_2IFCnew_2020_Mar_26_1930_45,stimulus2AFCnew_2IFCnew_2020_Mar_26_1930_46,False,3,2AFCnew,2020_Mar_26_1930,2IFCnew,
2IFCnew,23,0,23,0,-1,1,null,4,-1,Hit,0.30082209990359843,True,False,1,0,1,stimulus2AFCnew_2IFCnew_2020_Mar_26_1930_47,stimulus2AFCnew_2IFCnew_2020_Mar_26_1930_48,False,3,2AFCnew,2020_Mar_26_1930,2IFCnew,
2IFCnew,24,0,24,0,-1,1,null,4,-1,Hit,0.2819374999962747,True,False,1,0,1,stimulus2AFCnew_2IFCnew_2020_Mar_26_1930_49,stimulus2AFCnew_2IFCnew_2020_Mar_26_1930_50,False,3,2AFCnew,2020_Mar_26_1930,2IFCnew,
2IFCnew,25,0,25,0,0.6340865000383928,5,Yes,4,-1,False Alarm,0.3672263999469578,False,True,1,1,2,stimulus2AFCnew_2IFCnew_2020_Mar_26_1930_51,stimulus2AFCnew_2IFCnew_2020_Mar_26_1930_52,False,3,2AFCnew,2020_Mar_26_1930,2IFCnew,
2IFCnew,26,0,26,0,0.41762520000338554,7,Yes,4,-1,Hit,0.33442870003636926,True,False,1,1,1,stimulus2AFCnew_2IFCnew_2020_Mar_26_1930_53,stimulus2AFCnew_2IFCnew_2020_Mar_26_1930_54,False,3,2AFCnew,2020_Mar_26_1930,2IFCnew,
2IFCnew,27,0,27,0,-1,2,null,4,-1,False Alarm,0.41775120003148913,False,True,1,0,2,stimulus2AFCnew_2IFCnew_2020_Mar_26_1930_55,stimulus2AFCnew_2IFCnew_2020_Mar_26_1930_56,False,3,2AFCnew,2020_Mar_26_1930,2IFCnew,
2IFCnew,28,0,28,0,0.3670333999907598,7,Yes,4,-1,Hit,0.634077399969101,True,False,1,1,1,stimulus2AFCnew_2IFCnew_2020_Mar_26_1930_57,stimulus2AFCnew_2IFCnew_2020_Mar_26_1930_58,False,3,2AFCnew,2020_Mar_26_1930,2IFCnew,
2IFCnew,29,0,29,0,-1,1,null,4,-1,Hit,0.4344598999014124,True,False,1,0,1,stimulus2AFCnew_2IFCnew_2020_Mar_26_1930_59,stimulus2AFCnew_2IFCnew_2020_Mar_26_1930_60,False,3,2AFCnew,2020_Mar_26_1930,2IFCnew,
2IFCnew,30,0,30,0,-1,2,null,4,-1,False Alarm,0.5010064000962302,False,True,1,0,2,stimulus2AFCnew_2IFCnew_2020_Mar_26_1930_61,stimulus2AFCnew_2IFCnew_2020_Mar_26_1930_62,False,3,2AFCnew,2020_Mar_26_1930,2IFCnew,
2IFCnew,31,0,31,0,0.5673898999812081,6,No,4,-1,Miss,0.33388699998613447,True,False,2,2,1,stimulus2AFCnew_2IFCnew_2020_Mar_26_1930_63,stimulus2AFCnew_2IFCnew_2020_Mar_26_1930_64,False,3,2AFCnew,2020_Mar_26_1930,2IFCnew,
2IFCnew,32,0,32,0,0.2672141999937594,6,No,4,-1,Miss,0.5837036999873817,True,False,2,2,1,stimulus2AFCnew_2IFCnew_2020_Mar_26_1930_65,stimulus2AFCnew_2IFCnew_2020_Mar_26_1930_66,False,3,2AFCnew,2020_Mar_26_1930,2IFCnew,
2IFCnew,33,0,33,0,0.5330858000088483,6,No,4,-1,Miss,0.667460999917239,True,False,2,2,1,stimulus2AFCnew_2IFCnew_2020_Mar_26_1930_67,stimulus2AFCnew_2IFCnew_2020_Mar_26_1930_68,False,3,2AFCnew,2020_Mar_26_1930,2IFCnew,
2IFCnew,34,0,34,0,-1,3,null,4,-1,Correct Rejection,0.632277199998498,False,True,2,0,2,stimulus2AFCnew_2IFCnew_2020_Mar_26_1930_69,stimulus2AFCnew_2IFCnew_2020_Mar_26_1930_70,False,3,2AFCnew,2020_Mar_26_1930,2IFCnew,
2IFCnew,35,0,35,0,-1,1,null,4,-1,Hit,0.6012532999739051,True,False,1,0,1,stimulus2AFCnew_2IFCnew_2020_Mar_26_1930_71,stimulus2AFCnew_2IFCnew_2020_Mar_26_1930_72,False,3,2AFCnew,2020_Mar_26_1930,2IFCnew,
2IFCnew,36,0,36,0,-1,1,null,4,-1,Hit,0.35084359999746084,True,False,1,0,1,stimulus2AFCnew_2IFCnew_2020_Mar_26_1930_73,stimulus2AFCnew_2IFCnew_2020_Mar_26_1930_74,False,3,2AFCnew,2020_Mar_26_1930,2IFCnew,
2IFCnew,37,0,37,0,-1,4,null,4,-1,Miss,0.4839369000401348,True,False,2,0,1,stimulus2AFCnew_2IFCnew_2020_Mar_26_1930_75,stimulus2AFCnew_2IFCnew_2020_Mar_26_1930_76,False,3,2AFCnew,2020_Mar_26_1930,2IFCnew,
2IFCnew,38,0,38,0,-1,3,null,4,-1,Correct Rejection,0.4677766999229789,False,True,2,0,2,stimulus2AFCnew_2IFCnew_2020_Mar_26_1930_77,stimulus2AFCnew_2IFCnew_2020_Mar_26_1930_78,False,3,2AFCnew,2020_Mar_26_1930,2IFCnew,
2IFCnew,39,0,39,0,0.6047303999075666,1,No,4,-1,Hit,0.44856259995140135,True,False,1,2,1,stimulus2AFCnew_2IFCnew_2020_Mar_26_1930_79,stimulus2AFCnew_2IFCnew_2020_Mar_26_1930_80,False,3,2AFCnew,2020_Mar_26_1930,2IFCnew,
2IFCnew,40,0,40,0,-1,1,null,4,-1,Hit,0.5676762000657618,True,False,1,0,1,stimulus2AFCnew_2IFCnew_2020_Mar_26_1930_81,stimulus2AFCnew_2IFCnew_2020_Mar_26_1930_82,False,3,2AFCnew,2020_Mar_26_1930,2IFCnew,
2IFCnew,41,0,41,0,-1,2,null,4,-1,False Alarm,0.7681572999572381,False,True,1,0,2,stimulus2AFCnew_2IFCnew_2020_Mar_26_1930_83,stimulus2AFCnew_2IFCnew_2020_Mar_26_1930_84,False,3,2AFCnew,2020_Mar_26_1930,2IFCnew,
2IFCnew,42,0,42,0,0.4349180000135675,5,Yes,4,-1,False Alarm,0.217725700000301,False,True,1,1,2,stimulus2AFCnew_2IFCnew_2020_Mar_26_1930_85,stimulus2AFCnew_2IFCnew_2020_Mar_26_1930_86,False,3,2AFCnew,2020_Mar_26_1930,2IFCnew,
2IFCnew,43,0,43,0,0.3674096999457106,5,Yes,4,-1,False Alarm,0.36767199996393174,False,True,1,1,2,stimulus2AFCnew_2IFCnew_2020_Mar_26_1930_87,stimulus2AFCnew_2IFCnew_2020_Mar_26_1930_88,False,3,2AFCnew,2020_Mar_26_1930,2IFCnew,
2IFCnew,44,0,44,0,0.5672476999461651,4,Yes,4,-1,Miss,0.3340679999673739,True,False,2,1,1,stimulus2AFCnew_2IFCnew_2020_Mar_26_1930_89,stimulus2AFCnew_2IFCnew_2020_Mar_26_1930_90,False,3,2AFCnew,2020_Mar_26_1930,2IFCnew,
2IFCnew,0,0,0,0,0.23383719997946173,7,Yes,10,-1,Hit,0.41787080001085997,True,False,1,1,1,stimulus2AFCnew_2IFCnew_2020_Mar_26_1930_91,stimulus2AFCnew_2IFCnew_2020_Mar_26_1930_92,False,3,2AFCnew,2020_Mar_26_1930,2IFCnew,
2IFCnew,1,0,1,0,-1,1,null,10,-1,Hit,0.4341455999528989,True,False,1,0,1,stimulus2AFCnew_2IFCnew_2020_Mar_26_1930_93,stimulus2AFCnew_2IFCnew_2020_Mar_26_1930_94,False,3,2AFCnew,2020_Mar_26_1930,2IFCnew,
2IFCnew,2,0,2,0,-1,3,null,10,-1,Correct Rejection,0.5004563999827951,False,True,2,0,2,stimulus2AFCnew_2IFCnew_2020_Mar_26_1930_95,stimulus2AFCnew_2IFCnew_2020_Mar_26_1930_96,False,3,2AFCnew,2020_Mar_26_1930,2IFCnew,
2IFCnew,3,0,3,0,-1,3,null,10,-1,Correct Rejection,0.5191731998929754,False,True,2,0,2,stimulus2AFCnew_2IFCnew_2020_Mar_26_1930_97,stimulus2AFCnew_2IFCnew_2020_Mar_26_1930_98,False,3,2AFCnew,2020_Mar_26_1930,2IFCnew,
2IFCnew,4,0,4,0,-1,1,null,10,-1,Hit,0.4175046000164002,True,False,1,0,1,stimulus2AFCnew_2IFCnew_2020_Mar_26_1930_99,stimulus2AFCnew_2IFCnew_2020_Mar_26_1930_100,False,3,2AFCnew,2020_Mar_26_1930,2IFCnew,
2IFCnew,5,0,5,0,-1,3,null,10,-1,Correct Rejection,0.3009533000877127,False,True,2,0,2,stimulus2AFCnew_2IFCnew_2020_Mar_26_1930_101,stimulus2AFCnew_2IFCnew_2020_Mar_26_1930_102,False,3,2AFCnew,2020_Mar_26_1930,2IFCnew,
2IFCnew,6,0,6,0,-1,1,null,10,-1,Hit,0.3352988000260666,True,False,1,0,1,stimulus2AFCnew_2IFCnew_2020_Mar_26_1930_103,stimulus2AFCnew_2IFCnew_2020_Mar_26_1930_104,False,3,2AFCnew,2020_Mar_26_1930,2IFCnew,
2IFCnew,7,0,7,0,0.06701890006661415,6,No,10,-1,Miss,0.3346673999913037,True,False,2,2,1,stimulus2AFCnew_2IFCnew_2020_Mar_26_1930_105,stimulus2AFCnew_2IFCnew_2020_Mar_26_1930_106,False,3,2AFCnew,2020_Mar_26_1930,2IFCnew,
2IFCnew,8,0,8,0,-1,3,null,10,-1,Correct Rejection,0.4507594999158755,False,True,2,0,2,stimulus2AFCnew_2IFCnew_2020_Mar_26_1930_107,stimulus2AFCnew_2IFCnew_2020_Mar_26_1930_108,False,3,2AFCnew,2020_Mar_26_1930,2IFCnew,
2IFCnew,9,0,9,0,-1,3,null,10,-1,Correct Rejection,0.5707812000764534,False,True,2,0,2,stimulus2AFCnew_2IFCnew_2020_Mar_26_1930_109,stimulus2AFCnew_2IFCnew_2020_Mar_26_1930_110,False,3,2AFCnew,2020_Mar_26_1930,2IFCnew,
2IFCnew,10,0,10,0,-1,1,null,10,-1,Hit,0.3841699999757111,True,False,1,0,1,stimulus2AFCnew_2IFCnew_2020_Mar_26_1930_111,stimulus2AFCnew_2IFCnew_2020_Mar_26_1930_112,False,3,2AFCnew,2020_Mar_26_1930,2IFCnew,
2IFCnew,11,0,11,0,-1,3,null,10,-1,Correct Rejection,0.4843877999810502,False,True,2,0,2,stimulus2AFCnew_2IFCnew_2020_Mar_26_1930_113,stimulus2AFCnew_2IFCnew_2020_Mar_26_1930_114,False,3,2AFCnew,2020_Mar_26_1930,2IFCnew,
2IFCnew,12,0,12,0,-1,1,null,10,-1,Hit,0.44949889997951686,True,False,1,0,1,stimulus2AFCnew_2IFCnew_2020_Mar_26_1930_115,stimulus2AFCnew_2IFCnew_2020_Mar_26_1930_116,False,3,2AFCnew,2020_Mar_26_1930,2IFCnew,
2IFCnew,13,0,13,0,-1,1,null,10,-1,Hit,0.35077489994000643,True,False,1,0,1,stimulus2AFCnew_2IFCnew_2020_Mar_26_1930_117,stimulus2AFCnew_2IFCnew_2020_Mar_26_1930_118,False,3,2AFCnew,2020_Mar_26_1930,2IFCnew,
2IFCnew,14,0,14,0,-1,1,null,10,-1,Hit,0.3342281000223011,True,False,1,0,1,stimulus2AFCnew_2IFCnew_2020_Mar_26_1930_119,stimulus2AFCnew_2IFCnew_2020_Mar_26_1930_120,False,3,2AFCnew,2020_Mar_26_1930,2IFCnew,
2IFCnew,15,0,15,0,-1,3,null,10,-1,Correct Rejection,0.400666999979876,False,True,2,0,2,stimulus2AFCnew_2IFCnew_2020_Mar_26_1930_121,stimulus2AFCnew_2IFCnew_2020_Mar_26_1930_122,False,3,2AFCnew,2020_Mar_26_1930,2IFCnew,
2IFCnew,16,0,16,0,-1,1,null,10,-1,Hit,0.45095719990786165,True,False,1,0,1,stimulus2AFCnew_2IFCnew_2020_Mar_26_1930_123,stimulus2AFCnew_2IFCnew_2020_Mar_26_1930_124,False,3,2AFCnew,2020_Mar_26_1930,2IFCnew,
2IFCnew,17,0,17,0,-1,1,null,10,-1,Hit,0.398207199992612,True,False,1,0,1,stimulus2AFCnew_2IFCnew_2020_Mar_26_1930_125,stimulus2AFCnew_2IFCnew_2020_Mar_26_1930_126,False,3,2AFCnew,2020_Mar_26_1930,2IFCnew,
2IFCnew,18,0,18,0,-1,3,null,10,-1,Correct Rejection,0.4674258000450209,False,True,2,0,2,stimulus2AFCnew_2IFCnew_2020_Mar_26_1930_127,stimulus2AFCnew_2IFCnew_2020_Mar_26_1930_128,False,3,2AFCnew,2020_Mar_26_1930,2IFCnew,
2IFCnew,19,0,19,0,0.6507130999816582,5,Yes,10,-1,False Alarm,0.3674858999438584,False,True,1,1,2,stimulus2AFCnew_2IFCnew_2020_Mar_26_1930_129,stimulus2AFCnew_2IFCnew_2020_Mar_26_1930_130,False,3,2AFCnew,2020_Mar_26_1930,2IFCnew,
2IFCnew,20,0,20,0,-1,3,null,10,-1,Correct Rejection,0.4008001000620425,False,True,2,0,2,stimulus2AFCnew_2IFCnew_2020_Mar_26_1930_131,stimulus2AFCnew_2IFCnew_2020_Mar_26_1930_132,False,3,2AFCnew,2020_Mar_26_1930,2IFCnew,
2IFCnew,21,0,21,0,-1,3,null,10,-1,Correct Rejection,0.4330323999747634,False,True,2,0,2,stimulus2AFCnew_2IFCnew_2020_Mar_26_1930_133,stimulus2AFCnew_2IFCnew_2020_Mar_26_1930_134,False,3,2AFCnew,2020_Mar_26_1930,2IFCnew,
2IFCnew,22,0,22,0,-1,1,null,10,-1,Hit,0.3821498000761494,True,False,1,0,1,stimulus2AFCnew_2IFCnew_2020_Mar_26_1930_135,stimulus2AFCnew_2IFCnew_2020_Mar_26_1930_136,False,3,2AFCnew,2020_Mar_26_1930,2IFCnew,
2IFCnew,23,0,23,0,-1,3,null,10,-1,Correct Rejection,0.29925449995789677,False,True,2,0,2,stimulus2AFCnew_2IFCnew_2020_Mar_26_1930_137,stimulus2AFCnew_2IFCnew_2020_Mar_26_1930_138,False,3,2AFCnew,2020_Mar_26_1930,2IFCnew,
2IFCnew,24,0,24,0,-1,3,null,10,-1,Correct Rejection,0.45076549996156245,False,True,2,0,2,stimulus2AFCnew_2IFCnew_2020_Mar_26_1930_139,stimulus2AFCnew_2IFCnew_2020_Mar_26_1930_140,False,3,2AFCnew,2020_Mar_26_1930,2IFCnew,
2IFCnew,25,0,25,0,0.16725199995562434,6,No,10,-1,Miss,0.3005729999858886,True,False,2,2,1,stimulus2AFCnew_2IFCnew_2020_Mar_26_1930_141,stimulus2AFCnew_2IFCnew_2020_Mar_26_1930_142,False,3,2AFCnew,2020_Mar_26_1930,2IFCnew,
2IFCnew,26,0,26,0,-1,1,null,10,-1,Hit,0.33426589996088296,True,False,1,0,1,stimulus2AFCnew_2IFCnew_2020_Mar_26_1930_143,stimulus2AFCnew_2IFCnew_2020_Mar_26_1930_144,False,3,2AFCnew,2020_Mar_26_1930,2IFCnew,
2IFCnew,27,0,27,0,-1,3,null,10,-1,Correct Rejection,0.44969689997378737,False,True,2,0,2,stimulus2AFCnew_2IFCnew_2020_Mar_26_1930_145,stimulus2AFCnew_2IFCnew_2020_Mar_26_1930_146,False,3,2AFCnew,2020_Mar_26_1930,2IFCnew,
2IFCnew,28,0,28,0,-1,1,null,10,-1,Hit,0.34914220008067787,True,False,1,0,1,stimulus2AFCnew_2IFCnew_2020_Mar_26_1930_147,stimulus2AFCnew_2IFCnew_2020_Mar_26_1930_148,False,3,2AFCnew,2020_Mar_26_1930,2IFCnew,
2IFCnew,29,0,29,0,-1,3,null,10,-1,Correct Rejection,0.4010071000084281,False,True,2,0,2,stimulus2AFCnew_2IFCnew_2020_Mar_26_1930_149,stimulus2AFCnew_2IFCnew_2020_Mar_26_1930_150,False,3,2AFCnew,2020_Mar_26_1930,2IFCnew,
2IFCnew,30,0,30,0,-1,3,null,10,-1,Correct Rejection,0.5490937000140548,False,True,2,0,2,stimulus2AFCnew_2IFCnew_2020_Mar_26_1930_151,stimulus2AFCnew_2IFCnew_2020_Mar_26_1930_152,False,3,2AFCnew,2020_Mar_26_1930,2IFCnew,
2IFCnew,31,0,31,0,-1,3,null,10,-1,Correct Rejection,0.4674705999204889,False,True,2,0,2,stimulus2AFCnew_2IFCnew_2020_Mar_26_1930_153,stimulus2AFCnew_2IFCnew_2020_Mar_26_1930_154,False,3,2AFCnew,2020_Mar_26_1930,2IFCnew,
2IFCnew,32,0,32,0,-1,3,null,10,-1,Correct Rejection,0.4169216000009328,False,True,2,0,2,stimulus2AFCnew_2IFCnew_2020_Mar_26_1930_155,stimulus2AFCnew_2IFCnew_2020_Mar_26_1930_156,False,3,2AFCnew,2020_Mar_26_1930,2IFCnew,
2IFCnew,33,0,33,0,-1,3,null,10,-1,Correct Rejection,0.3176242000190541,False,True,2,0,2,stimulus2AFCnew_2IFCnew_2020_Mar_26_1930_157,stimulus2AFCnew_2IFCnew_2020_Mar_26_1930_158,False,3,2AFCnew,2020_Mar_26_1930,2IFCnew,
2IFCnew,34,0,34,0,-1,0,null,10,-1,No Answer,-1,False,True,0,0,2,stimulus2AFCnew_2IFCnew_2020_Mar_26_1930_159,stimulus2AFCnew_2IFCnew_2020_Mar_26_1930_160,False,3,2AFCnew,2020_Mar_26_1930,2IFCnew,
2IFCnew,35,0,35,0,-1,1,null,10,-1,Hit,0.45053639996331185,True,False,1,0,1,stimulus2AFCnew_2IFCnew_2020_Mar_26_1930_161,stimulus2AFCnew_2IFCnew_2020_Mar_26_1930_162,False,3,2AFCnew,2020_Mar_26_1930,2IFCnew,
2IFCnew,36,0,36,0,0.20048719993792474,6,No,10,-1,Miss,0.35295500000938773,True,False,2,2,1,stimulus2AFCnew_2IFCnew_2020_Mar_26_1930_163,stimulus2AFCnew_2IFCnew_2020_Mar_26_1930_164,False,3,2AFCnew,2020_Mar_26_1930,2IFCnew,
2IFCnew,37,0,37,0,0.23453849996440113,5,Yes,10,-1,False Alarm,0.36753339995630085,False,True,1,1,2,stimulus2AFCnew_2IFCnew_2020_Mar_26_1930_165,stimulus2AFCnew_2IFCnew_2020_Mar_26_1930_166,False,3,2AFCnew,2020_Mar_26_1930,2IFCnew,
2IFCnew,38,0,38,0,-1,3,null,10,-1,Correct Rejection,0.33408619998954237,False,True,2,0,2,stimulus2AFCnew_2IFCnew_2020_Mar_26_1930_167,stimulus2AFCnew_2IFCnew_2020_Mar_26_1930_168,False,3,2AFCnew,2020_Mar_26_1930,2IFCnew,
2IFCnew,39,0,39,0,-1,1,null,10,-1,Hit,0.3987615000223741,True,False,1,0,1,stimulus2AFCnew_2IFCnew_2020_Mar_26_1930_169,stimulus2AFCnew_2IFCnew_2020_Mar_26_1930_170,False,3,2AFCnew,2020_Mar_26_1930,2IFCnew,
2IFCnew,40,0,40,0,-1,3,null,10,-1,Correct Rejection,0.3005859999684617,False,True,2,0,2,stimulus2AFCnew_2IFCnew_2020_Mar_26_1930_171,stimulus2AFCnew_2IFCnew_2020_Mar_26_1930_172,False,3,2AFCnew,2020_Mar_26_1930,2IFCnew,
2IFCnew,41,0,41,0,-1,3,null,10,-1,Correct Rejection,0.2503790999762714,False,True,2,0,2,stimulus2AFCnew_2IFCnew_2020_Mar_26_1930_173,stimulus2AFCnew_2IFCnew_2020_Mar_26_1930_174,False,3,2AFCnew,2020_Mar_26_1930,2IFCnew,
2IFCnew,42,0,42,0,-1,3,null,10,-1,Correct Rejection,0.4861144000897184,False,True,2,0,2,stimulus2AFCnew_2IFCnew_2020_Mar_26_1930_175,stimulus2AFCnew_2IFCnew_2020_Mar_26_1930_176,False,3,2AFCnew,2020_Mar_26_1930,2IFCnew,
2IFCnew,43,0,43,0,-1,3,null,10,-1,Correct Rejection,0.38413410005159676,False,True,2,0,2,stimulus2AFCnew_2IFCnew_2020_Mar_26_1930_177,stimulus2AFCnew_2IFCnew_2020_Mar_26_1930_178,False,3,2AFCnew,2020_Mar_26_1930,2IFCnew,
2IFCnew,44,0,44,0,-1,3,null,10,-1,Correct Rejection,0.3502214999170974,False,True,2,0,2,stimulus2AFCnew_2IFCnew_2020_Mar_26_1930_179,stimulus2AFCnew_2IFCnew_2020_Mar_26_1930_180,False,3,2AFCnew,2020_Mar_26_1930,2IFCnew,
2IFCnew,0,0,0,0,-1,4,null,5,-1,Miss,0.367241199943237,True,False,2,0,1,stimulus2AFCnew_2IFCnew_2020_Mar_26_1930_181,stimulus2AFCnew_2IFCnew_2020_Mar_26_1930_182,False,3,2AFCnew,2020_Mar_26_1930,2IFCnew,
2IFCnew,1,0,1,0,-1,0,null,5,-1,No Answer,-1,False,True,0,0,2,stimulus2AFCnew_2IFCnew_2020_Mar_26_1930_183,stimulus2AFCnew_2IFCnew_2020_Mar_26_1930_184,False,3,2AFCnew,2020_Mar_26_1930,2IFCnew,
2IFCnew,2,0,2,0,0.5008209999650717,8,No,5,-1,Correct Rejection,0.2847217000089586,False,True,2,2,2,stimulus2AFCnew_2IFCnew_2020_Mar_26_1930_185,stimulus2AFCnew_2IFCnew_2020_Mar_26_1930_186,False,3,2AFCnew,2020_Mar_26_1930,2IFCnew,
2IFCnew,3,0,3,0,0.33388049993664026,2,Yes,5,-1,Correct Rejection,0.317890900070779,False,True,2,1,2,stimulus2AFCnew_2IFCnew_2020_Mar_26_1930_187,stimulus2AFCnew_2IFCnew_2020_Mar_26_1930_188,False,3,2AFCnew,2020_Mar_26_1930,2IFCnew,
2IFCnew,4,0,4,0,0.8513318999903277,7,Yes,5,-1,Hit,0.4175818000221625,True,False,1,1,1,stimulus2AFCnew_2IFCnew_2020_Mar_26_1930_189,stimulus2AFCnew_2IFCnew_2020_Mar_26_1930_190,False,3,2AFCnew,2020_Mar_26_1930,2IFCnew,
2IFCnew,5,0,5,0,0.6840700999600813,2,Yes,5,-1,Correct Rejection,0.3342485000612214,False,True,2,1,2,stimulus2AFCnew_2IFCnew_2020_Mar_26_1930_191,stimulus2AFCnew_2IFCnew_2020_Mar_26_1930_192,False,3,2AFCnew,2020_Mar_26_1930,2IFCnew,
2IFCnew,6,0,6,0,-1,4,null,5,-1,Miss,0.4176107000093907,True,False,2,0,1,stimulus2AFCnew_2IFCnew_2020_Mar_26_1930_193,stimulus2AFCnew_2IFCnew_2020_Mar_26_1930_194,False,3,2AFCnew,2020_Mar_26_1930,2IFCnew,
2IFCnew,7,0,7,0,0.41758539993315935,5,Yes,5,-1,False Alarm,0.3642645999789238,False,True,1,1,2,stimulus2AFCnew_2IFCnew_2020_Mar_26_1930_195,stimulus2AFCnew_2IFCnew_2020_Mar_26_1930_196,False,3,2AFCnew,2020_Mar_26_1930,2IFCnew,
2IFCnew,8,0,8,0,-1,1,null,5,-1,Hit,0.40077979990746826,True,False,1,0,1,stimulus2AFCnew_2IFCnew_2020_Mar_26_1930_197,stimulus2AFCnew_2IFCnew_2020_Mar_26_1930_198,False,3,2AFCnew,2020_Mar_26_1930,2IFCnew,
2IFCnew,9,0,9,0,0.25048349995631725,8,No,5,-1,Correct Rejection,0.36646550009027123,False,True,2,2,2,stimulus2AFCnew_2IFCnew_2020_Mar_26_1930_199,stimulus2AFCnew_2IFCnew_2020_Mar_26_1930_200,False,3,2AFCnew,2020_Mar_26_1930,2IFCnew,
2IFCnew,10,0,10,0,-1,3,null,5,-1,Correct Rejection,0.38294250005856156,False,True,2,0,2,stimulus2AFCnew_2IFCnew_2020_Mar_26_1930_201,stimulus2AFCnew_2IFCnew_2020_Mar_26_1930_202,False,3,2AFCnew,2020_Mar_26_1930,2IFCnew,
2IFCnew,11,0,11,0,-1,1,null,5,-1,Hit,0.46611480007413775,True,False,1,0,1,stimulus2AFCnew_2IFCnew_2020_Mar_26_1930_203,stimulus2AFCnew_2IFCnew_2020_Mar_26_1930_204,False,3,2AFCnew,2020_Mar_26_1930,2IFCnew,
2IFCnew,12,0,12,0,-1,1,null,5,-1,Hit,0.4677705999929458,True,False,1,0,1,stimulus2AFCnew_2IFCnew_2020_Mar_26_1930_205,stimulus2AFCnew_2IFCnew_2020_Mar_26_1930_206,False,3,2AFCnew,2020_Mar_26_1930,2IFCnew,
2IFCnew,13,0,13,0,0.2671269999118522,6,No,5,-1,Miss,0.45077420002780855,True,False,2,2,1,stimulus2AFCnew_2IFCnew_2020_Mar_26_1930_207,stimulus2AFCnew_2IFCnew_2020_Mar_26_1930_208,False,3,2AFCnew,2020_Mar_26_1930,2IFCnew,
2IFCnew,14,0,14,0,-1,1,null,5,-1,Hit,0.3990099999355152,True,False,1,0,1,stimulus2AFCnew_2IFCnew_2020_Mar_26_1930_209,stimulus2AFCnew_2IFCnew_2020_Mar_26_1930_210,False,3,2AFCnew,2020_Mar_26_1930,2IFCnew,
2IFCnew,15,0,15,0,-1,3,null,5,-1,Correct Rejection,0.43383520003408194,False,True,2,0,2,stimulus2AFCnew_2IFCnew_2020_Mar_26_1930_211,stimulus2AFCnew_2IFCnew_2020_Mar_26_1930_212,False,3,2AFCnew,2020_Mar_26_1930,2IFCnew,
2IFCnew,16,0,16,0,-1,3,null,5,-1,Correct Rejection,0.47069790004752576,False,True,2,0,2,stimulus2AFCnew_2IFCnew_2020_Mar_26_1930_213,stimulus2AFCnew_2IFCnew_2020_Mar_26_1930_214,False,3,2AFCnew,2020_Mar_26_1930,2IFCnew,
2IFCnew,17,0,17,0,0.0836911000078544,6,No,5,-1,Miss,0.30018489994108677,True,False,2,2,1,stimulus2AFCnew_2IFCnew_2020_Mar_26_1930_215,stimulus2AFCnew_2IFCnew_2020_Mar_26_1930_216,False,3,2AFCnew,2020_Mar_26_1930,2IFCnew,
2IFCnew,18,0,18,0,-1,3,null,5,-1,Correct Rejection,0.5007648000027984,False,True,2,0,2,stimulus2AFCnew_2IFCnew_2020_Mar_26_1930_217,stimulus2AFCnew_2IFCnew_2020_Mar_26_1930_218,False,3,2AFCnew,2020_Mar_26_1930,2IFCnew,
2IFCnew,19,0,19,0,-1,3,null,5,-1,Correct Rejection,0.3673580000177026,False,True,2,0,2,stimulus2AFCnew_2IFCnew_2020_Mar_26_1930_219,stimulus2AFCnew_2IFCnew_2020_Mar_26_1930_220,False,3,2AFCnew,2020_Mar_26_1930,2IFCnew,
2IFCnew,20,0,20,0,-1,4,null,5,-1,Miss,0.35005060001276433,True,False,2,0,1,stimulus2AFCnew_2IFCnew_2020_Mar_26_1930_221,stimulus2AFCnew_2IFCnew_2020_Mar_26_1930_222,False,3,2AFCnew,2020_Mar_26_1930,2IFCnew,
2IFCnew,21,0,21,0,0.2837537999730557,5,Yes,5,-1,False Alarm,0.3141757999546826,False,True,1,1,2,stimulus2AFCnew_2IFCnew_2020_Mar_26_1930_223,stimulus2AFCnew_2IFCnew_2020_Mar_26_1930_224,False,3,2AFCnew,2020_Mar_26_1930,2IFCnew,
2IFCnew,22,0,22,0,-1,3,null,5,-1,Correct Rejection,0.6332961999578401,False,True,2,0,2,stimulus2AFCnew_2IFCnew_2020_Mar_26_1930_225,stimulus2AFCnew_2IFCnew_2020_Mar_26_1930_226,False,3,2AFCnew,2020_Mar_26_1930,2IFCnew,
2IFCnew,23,0,23,0,-1,3,null,5,-1,Correct Rejection,0.41767669992987067,False,True,2,0,2,stimulus2AFCnew_2IFCnew_2020_Mar_26_1930_227,stimulus2AFCnew_2IFCnew_2020_Mar_26_1930_228,False,3,2AFCnew,2020_Mar_26_1930,2IFCnew,
2IFCnew,24,0,24,0,-1,3,null,5,-1,Correct Rejection,0.3654052000492811,False,True,2,0,2,stimulus2AFCnew_2IFCnew_2020_Mar_26_1930_229,stimulus2AFCnew_2IFCnew_2020_Mar_26_1930_230,False,3,2AFCnew,2020_Mar_26_1930,2IFCnew,
2IFCnew,25,0,25,0,-1,1,null,5,-1,Hit,0.41813969996292144,True,False,1,0,1,stimulus2AFCnew_2IFCnew_2020_Mar_26_1930_231,stimulus2AFCnew_2IFCnew_2020_Mar_26_1930_232,False,3,2AFCnew,2020_Mar_26_1930,2IFCnew,
2IFCnew,26,0,26,0,-1,3,null,5,-1,Correct Rejection,0.38370420003775507,False,True,2,0,2,stimulus2AFCnew_2IFCnew_2020_Mar_26_1930_233,stimulus2AFCnew_2IFCnew_2020_Mar_26_1930_234,False,3,2AFCnew,2020_Mar_26_1930,2IFCnew,
2IFCnew,27,0,27,0,-1,3,null,5,-1,Correct Rejection,0.28348330000881106,False,True,2,0,2,stimulus2AFCnew_2IFCnew_2020_Mar_26_1930_235,stimulus2AFCnew_2IFCnew_2020_Mar_26_1930_236,False,3,2AFCnew,2020_Mar_26_1930,2IFCnew,
2IFCnew,28,0,28,0,0.29968599998392165,6,No,5,-1,Miss,0.2840244999388233,True,False,2,2,1,stimulus2AFCnew_2IFCnew_2020_Mar_26_1930_237,stimulus2AFCnew_2IFCnew_2020_Mar_26_1930_238,False,3,2AFCnew,2020_Mar_26_1930,2IFCnew,
2IFCnew,29,0,29,0,-1,1,null,5,-1,Hit,0.3688835999928415,True,False,1,0,1,stimulus2AFCnew_2IFCnew_2020_Mar_26_1930_239,stimulus2AFCnew_2IFCnew_2020_Mar_26_1930_240,False,3,2AFCnew,2020_Mar_26_1930,2IFCnew,
2IFCnew,30,0,30,0,0.6843386999098584,8,No,5,-1,Correct Rejection,0.5164656999986619,False,True,2,2,2,stimulus2AFCnew_2IFCnew_2020_Mar_26_1930_241,stimulus2AFCnew_2IFCnew_2020_Mar_26_1930_242,False,3,2AFCnew,2020_Mar_26_1930,2IFCnew,
2IFCnew,31,0,31,0,-1,1,null,5,-1,Hit,0.39877850003540516,True,False,1,0,1,stimulus2AFCnew_2IFCnew_2020_Mar_26_1930_243,stimulus2AFCnew_2IFCnew_2020_Mar_26_1930_244,False,3,2AFCnew,2020_Mar_26_1930,2IFCnew,
2IFCnew,32,0,32,0,0.2676956000505015,8,No,5,-1,Correct Rejection,0.40079439990222454,False,True,2,2,2,stimulus2AFCnew_2IFCnew_2020_Mar_26_1930_245,stimulus2AFCnew_2IFCnew_2020_Mar_26_1930_246,False,3,2AFCnew,2020_Mar_26_1930,2IFCnew,
2IFCnew,33,0,33,0,-1,1,null,5,-1,Hit,0.3857697999337688,True,False,1,0,1,stimulus2AFCnew_2IFCnew_2020_Mar_26_1930_247,stimulus2AFCnew_2IFCnew_2020_Mar_26_1930_248,False,3,2AFCnew,2020_Mar_26_1930,2IFCnew,
2IFCnew,34,0,34,0,-1,3,null,5,-1,Correct Rejection,0.5021741999080405,False,True,2,0,2,stimulus2AFCnew_2IFCnew_2020_Mar_26_1930_249,stimulus2AFCnew_2IFCnew_2020_Mar_26_1930_250,False,3,2AFCnew,2020_Mar_26_1930,2IFCnew,
2IFCnew,35,0,35,0,0.4171766000799835,6,No,5,-1,Miss,0.41754799999762326,True,False,2,2,1,stimulus2AFCnew_2IFCnew_2020_Mar_26_1930_251,stimulus2AFCnew_2IFCnew_2020_Mar_26_1930_252,False,3,2AFCnew,2020_Mar_26_1930,2IFCnew,
2IFCnew,36,0,36,0,-1,3,null,5,-1,Correct Rejection,0.5006488000508398,False,True,2,0,2,stimulus2AFCnew_2IFCnew_2020_Mar_26_1930_253,stimulus2AFCnew_2IFCnew_2020_Mar_26_1930_254,False,3,2AFCnew,2020_Mar_26_1930,2IFCnew,
2IFCnew,37,0,37,0,-1,3,null,5,-1,Correct Rejection,0.40182090003509074,False,True,2,0,2,stimulus2AFCnew_2IFCnew_2020_Mar_26_1930_255,stimulus2AFCnew_2IFCnew_2020_Mar_26_1930_256,False,3,2AFCnew,2020_Mar_26_1930,2IFCnew,
2IFCnew,38,0,38,0,-1,3,null,5,-1,Correct Rejection,0.44851539994124323,False,True,2,0,2,stimulus2AFCnew_2IFCnew_2020_Mar_26_1930_257,stimulus2AFCnew_2IFCnew_2020_Mar_26_1930_258,False,3,2AFCnew,2020_Mar_26_1930,2IFCnew,
2IFCnew,39,0,39,0,-1,1,null,5,-1,Hit,0.33405120007228106,True,False,1,0,1,stimulus2AFCnew_2IFCnew_2020_Mar_26_1930_259,stimulus2AFCnew_2IFCnew_2020_Mar_26_1930_260,False,3,2AFCnew,2020_Mar_26_1930,2IFCnew,
2IFCnew,40,0,40,0,0.5174371000612155,2,Yes,5,-1,Correct Rejection,0.3670241000363603,False,True,2,1,2,stimulus2AFCnew_2IFCnew_2020_Mar_26_1930_261,stimulus2AFCnew_2IFCnew_2020_Mar_26_1930_262,False,3,2AFCnew,2020_Mar_26_1930,2IFCnew,
2IFCnew,41,0,41,0,-1,3,null,5,-1,Correct Rejection,0.41541519993916154,False,True,2,0,2,stimulus2AFCnew_2IFCnew_2020_Mar_26_1930_263,stimulus2AFCnew_2IFCnew_2020_Mar_26_1930_264,False,3,2AFCnew,2020_Mar_26_1930,2IFCnew,
2IFCnew,42,0,42,0,-1,3,null,5,-1,Correct Rejection,0.45121590001508594,False,True,2,0,2,stimulus2AFCnew_2IFCnew_2020_Mar_26_1930_265,stimulus2AFCnew_2IFCnew_2020_Mar_26_1930_266,False,3,2AFCnew,2020_Mar_26_1930,2IFCnew,
2IFCnew,43,0,43,0,-1,3,null,5,-1,Correct Rejection,0.4002803999464959,False,True,2,0,2,stimulus2AFCnew_2IFCnew_2020_Mar_26_1930_267,stimulus2AFCnew_2IFCnew_2020_Mar_26_1930_268,False,3,2AFCnew,2020_Mar_26_1930,2IFCnew,
2IFCnew,44,0,44,0,-1,2,null,5,-1,False Alarm,0.38395520008634776,False,True,1,0,2,stimulus2AFCnew_2IFCnew_2020_Mar_26_1930_269,stimulus2AFCnew_2IFCnew_2020_Mar_26_1930_270,False,3,2AFCnew,2020_Mar_26_1930,2IFCnew,
2IFCnew,0,0,0,0,-1,3,null,8,-1,Correct Rejection,0.31723789998795837,False,True,2,0,2,stimulus2AFCnew_2IFCnew_2020_Mar_26_1930_271,stimulus2AFCnew_2IFCnew_2020_Mar_26_1930_272,False,3,2AFCnew,2020_Mar_26_1930,2IFCnew,
2IFCnew,1,0,1,0,-1,3,null,8,-1,Correct Rejection,0.3673898000270128,False,True,2,0,2,stimulus2AFCnew_2IFCnew_2020_Mar_26_1930_273,stimulus2AFCnew_2IFCnew_2020_Mar_26_1930_274,False,3,2AFCnew,2020_Mar_26_1930,2IFCnew,
2IFCnew,2,0,2,0,-1,1,null,8,-1,Hit,0.4180047999834642,True,False,1,0,1,stimulus2AFCnew_2IFCnew_2020_Mar_26_1930_275,stimulus2AFCnew_2IFCnew_2020_Mar_26_1930_276,False,3,2AFCnew,2020_Mar_26_1930,2IFCnew,
2IFCnew,3,0,3,0,-1,1,null,8,-1,Hit,0.4506305999821052,True,False,1,0,1,stimulus2AFCnew_2IFCnew_2020_Mar_26_1930_277,stimulus2AFCnew_2IFCnew_2020_Mar_26_1930_278,False,3,2AFCnew,2020_Mar_26_1930,2IFCnew,
2IFCnew,4,0,4,0,-1,1,null,8,-1,Hit,0.4844761999556795,True,False,1,0,1,stimulus2AFCnew_2IFCnew_2020_Mar_26_1930_279,stimulus2AFCnew_2IFCnew_2020_Mar_26_1930_280,False,3,2AFCnew,2020_Mar_26_1930,2IFCnew,
2IFCnew,5,0,5,0,-1,1,null,8,-1,Hit,0.3508916998980567,True,False,1,0,1,stimulus2AFCnew_2IFCnew_2020_Mar_26_1930_281,stimulus2AFCnew_2IFCnew_2020_Mar_26_1930_282,False,3,2AFCnew,2020_Mar_26_1930,2IFCnew,
2IFCnew,6,0,6,0,-1,1,null,8,-1,Hit,0.38416460005100816,True,False,1,0,1,stimulus2AFCnew_2IFCnew_2020_Mar_26_1930_283,stimulus2AFCnew_2IFCnew_2020_Mar_26_1930_284,False,3,2AFCnew,2020_Mar_26_1930,2IFCnew,
2IFCnew,7,0,7,0,-1,1,null,8,-1,Hit,0.41578659997321665,True,False,1,0,1,stimulus2AFCnew_2IFCnew_2020_Mar_26_1930_285,stimulus2AFCnew_2IFCnew_2020_Mar_26_1930_286,False,3,2AFCnew,2020_Mar_26_1930,2IFCnew,
2IFCnew,8,0,8,0,-1,3,null,8,-1,Correct Rejection,0.3996752999955788,False,True,2,0,2,stimulus2AFCnew_2IFCnew_2020_Mar_26_1930_287,stimulus2AFCnew_2IFCnew_2020_Mar_26_1930_288,False,3,2AFCnew,2020_Mar_26_1930,2IFCnew,
2IFCnew,9,0,9,0,-1,3,null,8,-1,Correct Rejection,0.35065719997510314,False,True,2,0,2,stimulus2AFCnew_2IFCnew_2020_Mar_26_1930_289,stimulus2AFCnew_2IFCnew_2020_Mar_26_1930_290,False,3,2AFCnew,2020_Mar_26_1930,2IFCnew,
2IFCnew,10,0,10,0,-1,1,null,8,-1,Hit,0.3671764999162406,True,False,1,0,1,stimulus2AFCnew_2IFCnew_2020_Mar_26_1930_291,stimulus2AFCnew_2IFCnew_2020_Mar_26_1930_292,False,3,2AFCnew,2020_Mar_26_1930,2IFCnew,
2IFCnew,11,0,11,0,-1,3,null,8,-1,Correct Rejection,0.46731109998654574,False,True,2,0,2,stimulus2AFCnew_2IFCnew_2020_Mar_26_1930_293,stimulus2AFCnew_2IFCnew_2020_Mar_26_1930_294,False,3,2AFCnew,2020_Mar_26_1930,2IFCnew,
2IFCnew,12,0,12,0,-1,3,null,8,-1,Correct Rejection,0.4678838000399992,False,True,2,0,2,stimulus2AFCnew_2IFCnew_2020_Mar_26_1930_295,stimulus2AFCnew_2IFCnew_2020_Mar_26_1930_296,False,3,2AFCnew,2020_Mar_26_1930,2IFCnew,
2IFCnew,13,0,13,0,-1,2,null,8,-1,False Alarm,0.24851349997334182,False,True,1,0,2,stimulus2AFCnew_2IFCnew_2020_Mar_26_1930_297,stimulus2AFCnew_2IFCnew_2020_Mar_26_1930_298,False,3,2AFCnew,2020_Mar_26_1930,2IFCnew,
2IFCnew,14,0,14,0,0.16686740005388856,6,No,8,-1,Miss,0.30157239991240203,True,False,2,2,1,stimulus2AFCnew_2IFCnew_2020_Mar_26_1930_299,stimulus2AFCnew_2IFCnew_2020_Mar_26_1930_300,False,3,2AFCnew,2020_Mar_26_1930,2IFCnew,
2IFCnew,15,0,15,0,-1,1,null,8,-1,Hit,0.40005990001372993,True,False,1,0,1,stimulus2AFCnew_2IFCnew_2020_Mar_26_1930_301,stimulus2AFCnew_2IFCnew_2020_Mar_26_1930_302,False,3,2AFCnew,2020_Mar_26_1930,2IFCnew,
2IFCnew,16,0,16,0,-1,1,null,8,-1,Hit,0.3675826999824494,True,False,1,0,1,stimulus2AFCnew_2IFCnew_2020_Mar_26_1930_303,stimulus2AFCnew_2IFCnew_2020_Mar_26_1930_304,False,3,2AFCnew,2020_Mar_26_1930,2IFCnew,
2IFCnew,17,0,17,0,-1,1,null,8,-1,Hit,0.4176751999184489,True,False,1,0,1,stimulus2AFCnew_2IFCnew_2020_Mar_26_1930_305,stimulus2AFCnew_2IFCnew_2020_Mar_26_1930_306,False,3,2AFCnew,2020_Mar_26_1930,2IFCnew,
2IFCnew,18,0,18,0,-1,3,null,8,-1,Correct Rejection,0.3028224000008777,False,True,2,0,2,stimulus2AFCnew_2IFCnew_2020_Mar_26_1930_307,stimulus2AFCnew_2IFCnew_2020_Mar_26_1930_308,False,3,2AFCnew,2020_Mar_26_1930,2IFCnew,
2IFCnew,19,0,19,0,0.08374409994576126,6,No,8,-1,Miss,0.3340846999781206,True,False,2,2,1,stimulus2AFCnew_2IFCnew_2020_Mar_26_1930_309,stimulus2AFCnew_2IFCnew_2020_Mar_26_1930_310,False,3,2AFCnew,2020_Mar_26_1930,2IFCnew,
2IFCnew,20,0,20,0,-1,1,null,8,-1,Hit,0.3478238999377936,True,False,1,0,1,stimulus2AFCnew_2IFCnew_2020_Mar_26_1930_311,stimulus2AFCnew_2IFCnew_2020_Mar_26_1930_312,False,3,2AFCnew,2020_Mar_26_1930,2IFCnew,
2IFCnew,21,0,21,0,0.10043460002634674,5,Yes,8,-1,False Alarm,0.21567559998948127,False,True,1,1,2,stimulus2AFCnew_2IFCnew_2020_Mar_26_1930_313,stimulus2AFCnew_2IFCnew_2020_Mar_26_1930_314,False,3,2AFCnew,2020_Mar_26_1930,2IFCnew,
2IFCnew,22,0,22,0,0.5673714999575168,8,No,8,-1,Correct Rejection,0.4842105999123305,False,True,2,2,2,stimulus2AFCnew_2IFCnew_2020_Mar_26_1930_315,stimulus2AFCnew_2IFCnew_2020_Mar_26_1930_316,False,3,2AFCnew,2020_Mar_26_1930,2IFCnew,
2IFCnew,23,0,23,0,-1,1,null,8,-1,Hit,0.21728179999627173,True,False,1,0,1,stimulus2AFCnew_2IFCnew_2020_Mar_26_1930_317,stimulus2AFCnew_2IFCnew_2020_Mar_26_1930_318,False,3,2AFCnew,2020_Mar_26_1930,2IFCnew,
2IFCnew,24,0,24,0,-1,1,null,8,-1,Hit,0.38080929999705404,True,False,1,0,1,stimulus2AFCnew_2IFCnew_2020_Mar_26_1930_319,stimulus2AFCnew_2IFCnew_2020_Mar_26_1930_320,False,3,2AFCnew,2020_Mar_26_1930,2IFCnew,
2IFCnew,25,0,25,0,-1,1,null,8,-1,Hit,0.46770040004048496,True,False,1,0,1,stimulus2AFCnew_2IFCnew_2020_Mar_26_1930_321,stimulus2AFCnew_2IFCnew_2020_Mar_26_1930_322,False,3,2AFCnew,2020_Mar_26_1930,2IFCnew,
2IFCnew,26,0,26,0,-1,3,null,8,-1,Correct Rejection,0.450654000043869,False,True,2,0,2,stimulus2AFCnew_2IFCnew_2020_Mar_26_1930_323,stimulus2AFCnew_2IFCnew_2020_Mar_26_1930_324,False,3,2AFCnew,2020_Mar_26_1930,2IFCnew,
2IFCnew,27,0,27,0,-1,1,null,8,-1,Hit,0.3346260000253096,True,False,1,0,1,stimulus2AFCnew_2IFCnew_2020_Mar_26_1930_325,stimulus2AFCnew_2IFCnew_2020_Mar_26_1930_326,False,3,2AFCnew,2020_Mar_26_1930,2IFCnew,
2IFCnew,28,0,28,0,0.38246480002999306,5,Yes,8,-1,False Alarm,0.18396980001125485,False,True,1,1,2,stimulus2AFCnew_2IFCnew_2020_Mar_26_1930_327,stimulus2AFCnew_2IFCnew_2020_Mar_26_1930_328,False,3,2AFCnew,2020_Mar_26_1930,2IFCnew,
2IFCnew,29,0,29,0,-1,1,null,8,-1,Hit,0.5681429000105709,True,False,1,0,1,stimulus2AFCnew_2IFCnew_2020_Mar_26_1930_329,stimulus2AFCnew_2IFCnew_2020_Mar_26_1930_330,False,3,2AFCnew,2020_Mar_26_1930,2IFCnew,
2IFCnew,30,0,30,0,-1,1,null,8,-1,Hit,0.3986169999698177,True,False,1,0,1,stimulus2AFCnew_2IFCnew_2020_Mar_26_1930_331,stimulus2AFCnew_2IFCnew_2020_Mar_26_1930_332,False,3,2AFCnew,2020_Mar_26_1930,2IFCnew,
2IFCnew,31,0,31,0,0.38423900003544986,5,Yes,8,-1,False Alarm,0.4984863999998197,False,True,1,1,2,stimulus2AFCnew_2IFCnew_2020_Mar_26_1930_333,stimulus2AFCnew_2IFCnew_2020_Mar_26_1930_334,False,3,2AFCnew,2020_Mar_26_1930,2IFCnew,
2IFCnew,32,0,32,0,-1,3,null,8,-1,Correct Rejection,0.3346733000362292,False,True,2,0,2,stimulus2AFCnew_2IFCnew_2020_Mar_26_1930_335,stimulus2AFCnew_2IFCnew_2020_Mar_26_1930_336,False,3,2AFCnew,2020_Mar_26_1930,2IFCnew,
2IFCnew,33,0,33,0,-1,1,null,8,-1,Hit,0.4202369999838993,True,False,1,0,1,stimulus2AFCnew_2IFCnew_2020_Mar_26_1930_337,stimulus2AFCnew_2IFCnew_2020_Mar_26_1930_338,False,3,2AFCnew,2020_Mar_26_1930,2IFCnew,
2IFCnew,34,0,34,0,-1,1,null,8,-1,Hit,0.41722980001941323,True,False,1,0,1,stimulus2AFCnew_2IFCnew_2020_Mar_26_1930_339,stimulus2AFCnew_2IFCnew_2020_Mar_26_1930_340,False,3,2AFCnew,2020_Mar_26_1930,2IFCnew,
2IFCnew,35,0,35,0,-1,3,null,8,-1,Correct Rejection,0.40258969995193183,False,True,2,0,2,stimulus2AFCnew_2IFCnew_2020_Mar_26_1930_341,stimulus2AFCnew_2IFCnew_2020_Mar_26_1930_342,False,3,2AFCnew,2020_Mar_26_1930,2IFCnew,
2IFCnew,36,0,36,0,-1,1,null,8,-1,Hit,0.3010240000439808,True,False,1,0,1,stimulus2AFCnew_2IFCnew_2020_Mar_26_1930_343,stimulus2AFCnew_2IFCnew_2020_Mar_26_1930_344,False,3,2AFCnew,2020_Mar_26_1930,2IFCnew,
2IFCnew,37,0,37,0,0.1838020000141114,6,No,8,-1,Miss,0.35056020005140454,True,False,2,2,1,stimulus2AFCnew_2IFCnew_2020_Mar_26_1930_345,stimulus2AFCnew_2IFCnew_2020_Mar_26_1930_346,False,3,2AFCnew,2020_Mar_26_1930,2IFCnew,
2IFCnew,38,0,38,0,-1,1,null,8,-1,Hit,0.38256619998719543,True,False,1,0,1,stimulus2AFCnew_2IFCnew_2020_Mar_26_1930_347,stimulus2AFCnew_2IFCnew_2020_Mar_26_1930_348,False,3,2AFCnew,2020_Mar_26_1930,2IFCnew,
2IFCnew,39,0,39,0,-1,1,null,8,-1,Hit,0.2845863000256941,True,False,1,0,1,stimulus2AFCnew_2IFCnew_2020_Mar_26_1930_349,stimulus2AFCnew_2IFCnew_2020_Mar_26_1930_350,False,3,2AFCnew,2020_Mar_26_1930,2IFCnew,
2IFCnew,40,0,40,0,-1,4,null,8,-1,Miss,0.3377346999477595,True,False,2,0,1,stimulus2AFCnew_2IFCnew_2020_Mar_26_1930_351,stimulus2AFCnew_2IFCnew_2020_Mar_26_1930_352,False,3,2AFCnew,2020_Mar_26_1930,2IFCnew,
2IFCnew,41,0,41,0,0.38362930004950613,2,Yes,8,-1,Correct Rejection,0.4848473999882117,False,True,2,1,2,stimulus2AFCnew_2IFCnew_2020_Mar_26_1930_353,stimulus2AFCnew_2IFCnew_2020_Mar_26_1930_354,False,3,2AFCnew,2020_Mar_26_1930,2IFCnew,
2IFCnew,42,0,42,0,-1,3,null,8,-1,Correct Rejection,0.4848110000602901,False,True,2,0,2,stimulus2AFCnew_2IFCnew_2020_Mar_26_1930_355,stimulus2AFCnew_2IFCnew_2020_Mar_26_1930_356,False,3,2AFCnew,2020_Mar_26_1930,2IFCnew,
2IFCnew,43,0,43,0,-1,1,null,8,-1,Hit,0.334327399963513,True,False,1,0,1,stimulus2AFCnew_2IFCnew_2020_Mar_26_1930_357,stimulus2AFCnew_2IFCnew_2020_Mar_26_1930_358,False,3,2AFCnew,2020_Mar_26_1930,2IFCnew,
2IFCnew,44,0,44,0,-1,1,null,8,-1,Hit,0.5318729999708012,True,False,1,0,1,stimulus2AFCnew_2IFCnew_2020_Mar_26_1930_359,stimulus2AFCnew_2IFCnew_2020_Mar_26_1930_360,False,3,2AFCnew,2020_Mar_26_1930,2IFCnew,
2IFCnew,0,0,0,0,0.7694125999696553,6,No,6,-1,Miss,0.36739430006127805,True,False,2,2,1,stimulus2AFCnew_2IFCnew_2020_Mar_26_1930_361,stimulus2AFCnew_2IFCnew_2020_Mar_26_1930_362,False,3,2AFCnew,2020_Mar_26_1930,2IFCnew,
2IFCnew,1,0,1,0,-1,1,null,6,-1,Hit,0.5827320000389591,True,False,1,0,1,stimulus2AFCnew_2IFCnew_2020_Mar_26_1930_363,stimulus2AFCnew_2IFCnew_2020_Mar_26_1930_364,False,3,2AFCnew,2020_Mar_26_1930,2IFCnew,
2IFCnew,2,0,2,0,0.41735730005893856,6,No,6,-1,Miss,0.43401269998867065,True,False,2,2,1,stimulus2AFCnew_2IFCnew_2020_Mar_26_1930_365,stimulus2AFCnew_2IFCnew_2020_Mar_26_1930_366,False,3,2AFCnew,2020_Mar_26_1930,2IFCnew,
2IFCnew,3,0,3,0,-1,3,null,6,-1,Correct Rejection,0.38376559992320836,False,True,2,0,2,stimulus2AFCnew_2IFCnew_2020_Mar_26_1930_367,stimulus2AFCnew_2IFCnew_2020_Mar_26_1930_368,False,3,2AFCnew,2020_Mar_26_1930,2IFCnew,
2IFCnew,4,0,4,0,0.5205990000395104,5,Yes,6,-1,False Alarm,0.40064600005280226,False,True,1,1,2,stimulus2AFCnew_2IFCnew_2020_Mar_26_1930_369,stimulus2AFCnew_2IFCnew_2020_Mar_26_1930_370,False,3,2AFCnew,2020_Mar_26_1930,2IFCnew,
2IFCnew,5,0,5,0,-1,1,null,6,-1,Hit,0.500430699903518,True,False,1,0,1,stimulus2AFCnew_2IFCnew_2020_Mar_26_1930_371,stimulus2AFCnew_2IFCnew_2020_Mar_26_1930_372,False,3,2AFCnew,2020_Mar_26_1930,2IFCnew,
2IFCnew,6,0,6,0,-1,1,null,6,-1,Hit,0.5685888999141753,True,False,1,0,1,stimulus2AFCnew_2IFCnew_2020_Mar_26_1930_373,stimulus2AFCnew_2IFCnew_2020_Mar_26_1930_374,False,3,2AFCnew,2020_Mar_26_1930,2IFCnew,
2IFCnew,7,0,7,0,-1,1,null,6,-1,Hit,0.417411100002937,True,False,1,0,1,stimulus2AFCnew_2IFCnew_2020_Mar_26_1930_375,stimulus2AFCnew_2IFCnew_2020_Mar_26_1930_376,False,3,2AFCnew,2020_Mar_26_1930,2IFCnew,
2IFCnew,8,0,8,0,-1,3,null,6,-1,Correct Rejection,0.40105740004219115,False,True,2,0,2,stimulus2AFCnew_2IFCnew_2020_Mar_26_1930_377,stimulus2AFCnew_2IFCnew_2020_Mar_26_1930_378,False,3,2AFCnew,2020_Mar_26_1930,2IFCnew,
2IFCnew,9,0,9,0,-1,1,null,6,-1,Hit,0.43515739997383207,True,False,1,0,1,stimulus2AFCnew_2IFCnew_2020_Mar_26_1930_379,stimulus2AFCnew_2IFCnew_2020_Mar_26_1930_380,False,3,2AFCnew,2020_Mar_26_1930,2IFCnew,
2IFCnew,10,0,10,0,-1,3,null,6,-1,Correct Rejection,0.41739349998533726,False,True,2,0,2,stimulus2AFCnew_2IFCnew_2020_Mar_26_1930_381,stimulus2AFCnew_2IFCnew_2020_Mar_26_1930_382,False,3,2AFCnew,2020_Mar_26_1930,2IFCnew,
2IFCnew,11,0,11,0,-1,3,null,6,-1,Correct Rejection,0.4506255000596866,False,True,2,0,2,stimulus2AFCnew_2IFCnew_2020_Mar_26_1930_383,stimulus2AFCnew_2IFCnew_2020_Mar_26_1930_384,False,3,2AFCnew,2020_Mar_26_1930,2IFCnew,
2IFCnew,12,0,12,0,-1,1,null,6,-1,Hit,0.3655263000400737,True,False,1,0,1,stimulus2AFCnew_2IFCnew_2020_Mar_26_1930_385,stimulus2AFCnew_2IFCnew_2020_Mar_26_1930_386,False,3,2AFCnew,2020_Mar_26_1930,2IFCnew,
2IFCnew,13,0,13,0,0.4314677999354899,6,No,6,-1,Miss,0.3677287999307737,True,False,2,2,1,stimulus2AFCnew_2IFCnew_2020_Mar_26_1930_387,stimulus2AFCnew_2IFCnew_2020_Mar_26_1930_388,False,3,2AFCnew,2020_Mar_26_1930,2IFCnew,
2IFCnew,14,0,14,0,0.2839784000534564,5,Yes,6,-1,False Alarm,0.33526740001980215,False,True,1,1,2,stimulus2AFCnew_2IFCnew_2020_Mar_26_1930_389,stimulus2AFCnew_2IFCnew_2020_Mar_26_1930_390,False,3,2AFCnew,2020_Mar_26_1930,2IFCnew,
2IFCnew,15,0,15,0,0.23395129991695285,6,No,6,-1,Miss,0.2837291000178084,True,False,2,2,1,stimulus2AFCnew_2IFCnew_2020_Mar_26_1930_391,stimulus2AFCnew_2IFCnew_2020_Mar_26_1930_392,False,3,2AFCnew,2020_Mar_26_1930,2IFCnew,
2IFCnew,16,0,16,0,0.9008988999994472,8,No,6,-1,Correct Rejection,0.46640899998601526,False,True,2,2,2,stimulus2AFCnew_2IFCnew_2020_Mar_26_1930_393,stimulus2AFCnew_2IFCnew_2020_Mar_26_1930_394,False,3,2AFCnew,2020_Mar_26_1930,2IFCnew,
2IFCnew,17,0,17,0,-1,1,null,6,-1,Hit,0.39639879995957017,True,False,1,0,1,stimulus2AFCnew_2IFCnew_2020_Mar_26_1930_395,stimulus2AFCnew_2IFCnew_2020_Mar_26_1930_396,False,3,2AFCnew,2020_Mar_26_1930,2IFCnew,
2IFCnew,18,0,18,0,-1,1,null,6,-1,Hit,0.3507792999735102,True,False,1,0,1,stimulus2AFCnew_2IFCnew_2020_Mar_26_1930_397,stimulus2AFCnew_2IFCnew_2020_Mar_26_1930_398,False,3,2AFCnew,2020_Mar_26_1930,2IFCnew,
2IFCnew,19,0,19,0,-1,3,null,6,-1,Correct Rejection,0.5007760000880808,False,True,2,0,2,stimulus2AFCnew_2IFCnew_2020_Mar_26_1930_399,stimulus2AFCnew_2IFCnew_2020_Mar_26_1930_400,False,3,2AFCnew,2020_Mar_26_1930,2IFCnew,
2IFCnew,20,0,20,0,-1,3,null,6,-1,Correct Rejection,0.5166158999782056,False,True,2,0,2,stimulus2AFCnew_2IFCnew_2020_Mar_26_1930_401,stimulus2AFCnew_2IFCnew_2020_Mar_26_1930_402,False,3,2AFCnew,2020_Mar_26_1930,2IFCnew,
2IFCnew,21,0,21,0,-1,3,null,6,-1,Correct Rejection,0.5175296000670642,False,True,2,0,2,stimulus2AFCnew_2IFCnew_2020_Mar_26_1930_403,stimulus2AFCnew_2IFCnew_2020_Mar_26_1930_404,False,3,2AFCnew,2020_Mar_26_1930,2IFCnew,
2IFCnew,22,0,22,0,-1,1,null,6,-1,Hit,0.6674632999347523,True,False,1,0,1,stimulus2AFCnew_2IFCnew_2020_Mar_26_1930_405,stimulus2AFCnew_2IFCnew_2020_Mar_26_1930_406,False,3,2AFCnew,2020_Mar_26_1930,2IFCnew,
2IFCnew,23,0,23,0,-1,3,null,6,-1,Correct Rejection,0.4172508999472484,False,True,2,0,2,stimulus2AFCnew_2IFCnew_2020_Mar_26_1930_407,stimulus2AFCnew_2IFCnew_2020_Mar_26_1930_408,False,3,2AFCnew,2020_Mar_26_1930,2IFCnew,
2IFCnew,24,0,24,0,-1,1,null,6,-1,Hit,0.4671996000688523,True,False,1,0,1,stimulus2AFCnew_2IFCnew_2020_Mar_26_1930_409,stimulus2AFCnew_2IFCnew_2020_Mar_26_1930_410,False,3,2AFCnew,2020_Mar_26_1930,2IFCnew,
2IFCnew,25,0,25,0,-1,3,null,6,-1,Correct Rejection,0.3850118999835104,False,True,2,0,2,stimulus2AFCnew_2IFCnew_2020_Mar_26_1930_411,stimulus2AFCnew_2IFCnew_2020_Mar_26_1930_412,False,3,2AFCnew,2020_Mar_26_1930,2IFCnew,
2IFCnew,26,0,26,0,0.2006856999360025,5,Yes,6,-1,False Alarm,0.43110420007724315,False,True,1,1,2,stimulus2AFCnew_2IFCnew_2020_Mar_26_1930_413,stimulus2AFCnew_2IFCnew_2020_Mar_26_1930_414,False,3,2AFCnew,2020_Mar_26_1930,2IFCnew,
2IFCnew,27,0,27,0,-1,3,null,6,-1,Correct Rejection,0.4173870000522584,False,True,2,0,2,stimulus2AFCnew_2IFCnew_2020_Mar_26_1930_415,stimulus2AFCnew_2IFCnew_2020_Mar_26_1930_416,False,3,2AFCnew,2020_Mar_26_1930,2IFCnew,
2IFCnew,28,0,28,0,0.4340370000572875,5,Yes,6,-1,False Alarm,0.6516972999088466,False,True,1,1,2,stimulus2AFCnew_2IFCnew_2020_Mar_26_1930_417,stimulus2AFCnew_2IFCnew_2020_Mar_26_1930_418,False,3,2AFCnew,2020_Mar_26_1930,2IFCnew,
2IFCnew,29,0,29,0,-1,1,null,6,-1,Hit,0.5179608999751508,True,False,1,0,1,stimulus2AFCnew_2IFCnew_2020_Mar_26_1930_419,stimulus2AFCnew_2IFCnew_2020_Mar_26_1930_420,False,3,2AFCnew,2020_Mar_26_1930,2IFCnew,
2IFCnew,30,0,30,0,-1,1,null,6,-1,Hit,0.4844226000132039,True,False,1,0,1,stimulus2AFCnew_2IFCnew_2020_Mar_26_1930_421,stimulus2AFCnew_2IFCnew_2020_Mar_26_1930_422,False,3,2AFCnew,2020_Mar_26_1930,2IFCnew,
2IFCnew,31,0,31,0,-1,3,null,6,-1,Correct Rejection,0.4343542999122292,False,True,2,0,2,stimulus2AFCnew_2IFCnew_2020_Mar_26_1930_423,stimulus2AFCnew_2IFCnew_2020_Mar_26_1930_424,False,3,2AFCnew,2020_Mar_26_1930,2IFCnew,
2IFCnew,32,0,32,0,0.2505394999170676,5,Yes,6,-1,False Alarm,0.5168978000292554,False,True,1,1,2,stimulus2AFCnew_2IFCnew_2020_Mar_26_1930_425,stimulus2AFCnew_2IFCnew_2020_Mar_26_1930_426,False,3,2AFCnew,2020_Mar_26_1930,2IFCnew,
2IFCnew,33,0,33,0,-1,3,null,6,-1,Correct Rejection,0.3343875000718981,False,True,2,0,2,stimulus2AFCnew_2IFCnew_2020_Mar_26_1930_427,stimulus2AFCnew_2IFCnew_2020_Mar_26_1930_428,False,3,2AFCnew,2020_Mar_26_1930,2IFCnew,
2IFCnew,34,0,34,0,-1,1,null,6,-1,Hit,0.381823799922131,True,False,1,0,1,stimulus2AFCnew_2IFCnew_2020_Mar_26_1930_429,stimulus2AFCnew_2IFCnew_2020_Mar_26_1930_430,False,3,2AFCnew,2020_Mar_26_1930,2IFCnew,
2IFCnew,35,0,35,0,-1,1,null,6,-1,Hit,0.5186753000598401,True,False,1,0,1,stimulus2AFCnew_2IFCnew_2020_Mar_26_1930_431,stimulus2AFCnew_2IFCnew_2020_Mar_26_1930_432,False,3,2AFCnew,2020_Mar_26_1930,2IFCnew,
2IFCnew,36,0,36,0,0.6675586000783369,5,Yes,6,-1,False Alarm,0.5342013000044972,False,True,1,1,2,stimulus2AFCnew_2IFCnew_2020_Mar_26_1930_433,stimulus2AFCnew_2IFCnew_2020_Mar_26_1930_434,False,3,2AFCnew,2020_Mar_26_1930,2IFCnew,
2IFCnew,37,0,37,0,-1,3,null,6,-1,Correct Rejection,0.45151959999930114,False,True,2,0,2,stimulus2AFCnew_2IFCnew_2020_Mar_26_1930_435,stimulus2AFCnew_2IFCnew_2020_Mar_26_1930_436,False,3,2AFCnew,2020_Mar_26_1930,2IFCnew,
2IFCnew,38,0,38,0,0.500650400063023,8,No,6,-1,Correct Rejection,0.43409620004240423,False,True,2,2,2,stimulus2AFCnew_2IFCnew_2020_Mar_26_1930_437,stimulus2AFCnew_2IFCnew_2020_Mar_26_1930_438,False,3,2AFCnew,2020_Mar_26_1930,2IFCnew,
2IFCnew,39,0,39,0,0.3838615999557078,6,No,6,-1,Miss,0.48416899994481355,True,False,2,2,1,stimulus2AFCnew_2IFCnew_2020_Mar_26_1930_439,stimulus2AFCnew_2IFCnew_2020_Mar_26_1930_440,False,3,2AFCnew,2020_Mar_26_1930,2IFCnew,
2IFCnew,40,0,40,0,0.39949810004327446,5,Yes,6,-1,False Alarm,0.35125649999827147,False,True,1,1,2,stimulus2AFCnew_2IFCnew_2020_Mar_26_1930_441,stimulus2AFCnew_2IFCnew_2020_Mar_26_1930_442,False,3,2AFCnew,2020_Mar_26_1930,2IFCnew,
2IFCnew,41,0,41,0,-1,3,null,6,-1,Correct Rejection,0.4362179000163451,False,True,2,0,2,stimulus2AFCnew_2IFCnew_2020_Mar_26_1930_443,stimulus2AFCnew_2IFCnew_2020_Mar_26_1930_444,False,3,2AFCnew,2020_Mar_26_1930,2IFCnew,
2IFCnew,42,0,42,0,0.3994713000720367,6,No,6,-1,Miss,0.5831516999751329,True,False,2,2,1,stimulus2AFCnew_2IFCnew_2020_Mar_26_1930_445,stimulus2AFCnew_2IFCnew_2020_Mar_26_1930_446,False,3,2AFCnew,2020_Mar_26_1930,2IFCnew,
2IFCnew,43,0,43,0,-1,1,null,6,-1,Hit,0.45019999996293336,True,False,1,0,1,stimulus2AFCnew_2IFCnew_2020_Mar_26_1930_447,stimulus2AFCnew_2IFCnew_2020_Mar_26_1930_448,False,3,2AFCnew,2020_Mar_26_1930,2IFCnew,
2IFCnew,44,0,44,0,-1,1,null,6,-1,Hit,0.45078729989472777,True,False,1,0,1,stimulus2AFCnew_2IFCnew_2020_Mar_26_1930_449,stimulus2AFCnew_2IFCnew_2020_Mar_26_1930_450,False,3,2AFCnew,2020_Mar_26_1930,2IFCnew,
2IFCnew,0,0,0,0,-1,4,null,11,-1,Miss,0.3500564999412745,True,False,2,0,1,stimulus2AFCnew_2IFCnew_2020_Mar_26_1930_451,stimulus2AFCnew_2IFCnew_2020_Mar_26_1930_452,False,3,2AFCnew,2020_Mar_26_1930,2IFCnew,
2IFCnew,1,0,1,0,-1,1,null,11,-1,Hit,0.44964500004425645,True,False,1,0,1,stimulus2AFCnew_2IFCnew_2020_Mar_26_1930_453,stimulus2AFCnew_2IFCnew_2020_Mar_26_1930_454,False,3,2AFCnew,2020_Mar_26_1930,2IFCnew,
2IFCnew,2,0,2,0,-1,1,null,11,-1,Hit,0.4009790999116376,True,False,1,0,1,stimulus2AFCnew_2IFCnew_2020_Mar_26_1930_455,stimulus2AFCnew_2IFCnew_2020_Mar_26_1930_456,False,3,2AFCnew,2020_Mar_26_1930,2IFCnew,
2IFCnew,3,0,3,0,-1,3,null,11,-1,Correct Rejection,0.38345429999753833,False,True,2,0,2,stimulus2AFCnew_2IFCnew_2020_Mar_26_1930_457,stimulus2AFCnew_2IFCnew_2020_Mar_26_1930_458,False,3,2AFCnew,2020_Mar_26_1930,2IFCnew,
2IFCnew,4,0,4,0,-1,3,null,11,-1,Correct Rejection,0.4146265999879688,False,True,2,0,2,stimulus2AFCnew_2IFCnew_2020_Mar_26_1930_459,stimulus2AFCnew_2IFCnew_2020_Mar_26_1930_460,False,3,2AFCnew,2020_Mar_26_1930,2IFCnew,
2IFCnew,5,0,5,0,0.25076749990694225,5,Yes,11,-1,False Alarm,0.36741790000814945,False,True,1,1,2,stimulus2AFCnew_2IFCnew_2020_Mar_26_1930_461,stimulus2AFCnew_2IFCnew_2020_Mar_26_1930_462,False,3,2AFCnew,2020_Mar_26_1930,2IFCnew,
2IFCnew,6,0,6,0,-1,3,null,11,-1,Correct Rejection,0.41749999998137355,False,True,2,0,2,stimulus2AFCnew_2IFCnew_2020_Mar_26_1930_463,stimulus2AFCnew_2IFCnew_2020_Mar_26_1930_464,False,3,2AFCnew,2020_Mar_26_1930,2IFCnew,
2IFCnew,7,0,7,0,0.20369610004127026,5,Yes,11,-1,False Alarm,0.2837565999943763,False,True,1,1,2,stimulus2AFCnew_2IFCnew_2020_Mar_26_1930_465,stimulus2AFCnew_2IFCnew_2020_Mar_26_1930_466,False,3,2AFCnew,2020_Mar_26_1930,2IFCnew,
2IFCnew,8,0,8,0,0.2007946000667289,6,No,11,-1,Miss,0.4175933999940753,True,False,2,2,1,stimulus2AFCnew_2IFCnew_2020_Mar_26_1930_467,stimulus2AFCnew_2IFCnew_2020_Mar_26_1930_468,False,3,2AFCnew,2020_Mar_26_1930,2IFCnew,
2IFCnew,9,0,9,0,-1,3,null,11,-1,Correct Rejection,0.4507989000994712,False,True,2,0,2,stimulus2AFCnew_2IFCnew_2020_Mar_26_1930_469,stimulus2AFCnew_2IFCnew_2020_Mar_26_1930_470,False,3,2AFCnew,2020_Mar_26_1930,2IFCnew,
2IFCnew,10,0,10,0,-1,1,null,11,-1,Hit,0.3508784999139607,True,False,1,0,1,stimulus2AFCnew_2IFCnew_2020_Mar_26_1930_471,stimulus2AFCnew_2IFCnew_2020_Mar_26_1930_472,False,3,2AFCnew,2020_Mar_26_1930,2IFCnew,
2IFCnew,11,0,11,0,-1,3,null,11,-1,Correct Rejection,0.43408589996397495,False,True,2,0,2,stimulus2AFCnew_2IFCnew_2020_Mar_26_1930_473,stimulus2AFCnew_2IFCnew_2020_Mar_26_1930_474,False,3,2AFCnew,2020_Mar_26_1930,2IFCnew,
2IFCnew,12,0,12,0,-1,3,null,11,-1,Correct Rejection,0.5165948999347165,False,True,2,0,2,stimulus2AFCnew_2IFCnew_2020_Mar_26_1930_475,stimulus2AFCnew_2IFCnew_2020_Mar_26_1930_476,False,3,2AFCnew,2020_Mar_26_1930,2IFCnew,
2IFCnew,13,0,13,0,-1,1,null,11,-1,Hit,0.384185399976559,True,False,1,0,1,stimulus2AFCnew_2IFCnew_2020_Mar_26_1930_477,stimulus2AFCnew_2IFCnew_2020_Mar_26_1930_478,False,3,2AFCnew,2020_Mar_26_1930,2IFCnew,
2IFCnew,14,0,14,0,-1,1,null,11,-1,Hit,0.31895879993680865,True,False,1,0,1,stimulus2AFCnew_2IFCnew_2020_Mar_26_1930_479,stimulus2AFCnew_2IFCnew_2020_Mar_26_1930_480,False,3,2AFCnew,2020_Mar_26_1930,2IFCnew,
2IFCnew,15,0,15,0,-1,3,null,11,-1,Correct Rejection,0.5026095000794157,False,True,2,0,2,stimulus2AFCnew_2IFCnew_2020_Mar_26_1930_481,stimulus2AFCnew_2IFCnew_2020_Mar_26_1930_482,False,3,2AFCnew,2020_Mar_26_1930,2IFCnew,
2IFCnew,16,0,16,0,-1,1,null,11,-1,Hit,0.33409140002913773,True,False,1,0,1,stimulus2AFCnew_2IFCnew_2020_Mar_26_1930_483,stimulus2AFCnew_2IFCnew_2020_Mar_26_1930_484,False,3,2AFCnew,2020_Mar_26_1930,2IFCnew,
2IFCnew,17,0,17,0,-1,1,null,11,-1,Hit,0.3178693000227213,True,False,1,0,1,stimulus2AFCnew_2IFCnew_2020_Mar_26_1930_485,stimulus2AFCnew_2IFCnew_2020_Mar_26_1930_486,False,3,2AFCnew,2020_Mar_26_1930,2IFCnew,
2IFCnew,18,0,18,0,-1,3,null,11,-1,Correct Rejection,0.5146866999566555,False,True,2,0,2,stimulus2AFCnew_2IFCnew_2020_Mar_26_1930_487,stimulus2AFCnew_2IFCnew_2020_Mar_26_1930_488,False,3,2AFCnew,2020_Mar_26_1930,2IFCnew,
2IFCnew,19,0,19,0,-1,3,null,11,-1,Correct Rejection,0.5329519000370055,False,True,2,0,2,stimulus2AFCnew_2IFCnew_2020_Mar_26_1930_489,stimulus2AFCnew_2IFCnew_2020_Mar_26_1930_490,False,3,2AFCnew,2020_Mar_26_1930,2IFCnew,
2IFCnew,20,0,20,0,0.183749100076966,5,Yes,11,-1,False Alarm,0.40064819995313883,False,True,1,1,2,stimulus2AFCnew_2IFCnew_2020_Mar_26_1930_491,stimulus2AFCnew_2IFCnew_2020_Mar_26_1930_492,False,3,2AFCnew,2020_Mar_26_1930,2IFCnew,
2IFCnew,21,0,21,0,-1,3,null,11,-1,Correct Rejection,0.4340006000129506,False,True,2,0,2,stimulus2AFCnew_2IFCnew_2020_Mar_26_1930_493,stimulus2AFCnew_2IFCnew_2020_Mar_26_1930_494,False,3,2AFCnew,2020_Mar_26_1930,2IFCnew,
2IFCnew,22,0,22,0,-1,1,null,11,-1,Hit,0.3506613998906687,True,False,1,0,1,stimulus2AFCnew_2IFCnew_2020_Mar_26_1930_495,stimulus2AFCnew_2IFCnew_2020_Mar_26_1930_496,False,3,2AFCnew,2020_Mar_26_1930,2IFCnew,
2IFCnew,23,0,23,0,-1,1,null,11,-1,Hit,0.3510135000105947,True,False,1,0,1,stimulus2AFCnew_2IFCnew_2020_Mar_26_1930_497,stimulus2AFCnew_2IFCnew_2020_Mar_26_1930_498,False,3,2AFCnew,2020_Mar_26_1930,2IFCnew,
2IFCnew,24,0,24,0,0.050261099939234555,6,No,11,-1,Miss,0.2671820000978187,True,False,2,2,1,stimulus2AFCnew_2IFCnew_2020_Mar_26_1930_499,stimulus2AFCnew_2IFCnew_2020_Mar_26_1930_500,False,3,2AFCnew,2020_Mar_26_1930,2IFCnew,
2IFCnew,25,0,25,0,-1,1,null,11,-1,Hit,0.28414839995093644,True,False,1,0,1,stimulus2AFCnew_2IFCnew_2020_Mar_26_1930_501,stimulus2AFCnew_2IFCnew_2020_Mar_26_1930_502,False,3,2AFCnew,2020_Mar_26_1930,2IFCnew,
2IFCnew,26,0,26,0,-1,1,null,11,-1,Hit,0.3011257000034675,True,False,1,0,1,stimulus2AFCnew_2IFCnew_2020_Mar_26_1930_503,stimulus2AFCnew_2IFCnew_2020_Mar_26_1930_504,False,3,2AFCnew,2020_Mar_26_1930,2IFCnew,
2IFCnew,27,0,27,0,-1,1,null,11,-1,Hit,0.3990243999287486,True,False,1,0,1,stimulus2AFCnew_2IFCnew_2020_Mar_26_1930_505,stimulus2AFCnew_2IFCnew_2020_Mar_26_1930_506,False,3,2AFCnew,2020_Mar_26_1930,2IFCnew,
2IFCnew,28,0,28,0,-1,3,null,11,-1,Correct Rejection,0.4010186999803409,False,True,2,0,2,stimulus2AFCnew_2IFCnew_2020_Mar_26_1930_507,stimulus2AFCnew_2IFCnew_2020_Mar_26_1930_508,False,3,2AFCnew,2020_Mar_26_1930,2IFCnew,
2IFCnew,29,0,29,0,-1,2,null,11,-1,False Alarm,0.18404790002387017,False,True,1,0,2,stimulus2AFCnew_2IFCnew_2020_Mar_26_1930_509,stimulus2AFCnew_2IFCnew_2020_Mar_26_1930_510,False,3,2AFCnew,2020_Mar_26_1930,2IFCnew,
2IFCnew,30,0,30,0,-1,3,null,11,-1,Correct Rejection,0.5341514999745414,False,True,2,0,2,stimulus2AFCnew_2IFCnew_2020_Mar_26_1930_511,stimulus2AFCnew_2IFCnew_2020_Mar_26_1930_512,False,3,2AFCnew,2020_Mar_26_1930,2IFCnew,
2IFCnew,31,0,31,0,-1,3,null,11,-1,Correct Rejection,0.46765790006611496,False,True,2,0,2,stimulus2AFCnew_2IFCnew_2020_Mar_26_1930_513,stimulus2AFCnew_2IFCnew_2020_Mar_26_1930_514,False,3,2AFCnew,2020_Mar_26_1930,2IFCnew,
2IFCnew,32,0,32,0,-1,3,null,11,-1,Correct Rejection,0.39983230002690107,False,True,2,0,2,stimulus2AFCnew_2IFCnew_2020_Mar_26_1930_515,stimulus2AFCnew_2IFCnew_2020_Mar_26_1930_516,False,3,2AFCnew,2020_Mar_26_1930,2IFCnew,
2IFCnew,33,0,33,0,-1,3,null,11,-1,Correct Rejection,0.4179481000173837,False,True,2,0,2,stimulus2AFCnew_2IFCnew_2020_Mar_26_1930_517,stimulus2AFCnew_2IFCnew_2020_Mar_26_1930_518,False,3,2AFCnew,2020_Mar_26_1930,2IFCnew,
2IFCnew,34,0,34,0,-1,1,null,11,-1,Hit,0.40089499996975064,True,False,1,0,1,stimulus2AFCnew_2IFCnew_2020_Mar_26_1930_519,stimulus2AFCnew_2IFCnew_2020_Mar_26_1930_520,False,3,2AFCnew,2020_Mar_26_1930,2IFCnew,
2IFCnew,35,0,35,0,-1,1,null,11,-1,Hit,0.3506446999963373,True,False,1,0,1,stimulus2AFCnew_2IFCnew_2020_Mar_26_1930_521,stimulus2AFCnew_2IFCnew_2020_Mar_26_1930_522,False,3,2AFCnew,2020_Mar_26_1930,2IFCnew,
2IFCnew,36,0,36,0,-1,1,null,11,-1,Hit,0.3174278000369668,True,False,1,0,1,stimulus2AFCnew_2IFCnew_2020_Mar_26_1930_523,stimulus2AFCnew_2IFCnew_2020_Mar_26_1930_524,False,3,2AFCnew,2020_Mar_26_1930,2IFCnew,
2IFCnew,37,0,37,0,-1,3,null,11,-1,Correct Rejection,0.3504909999901429,False,True,2,0,2,stimulus2AFCnew_2IFCnew_2020_Mar_26_1930_525,stimulus2AFCnew_2IFCnew_2020_Mar_26_1930_526,False,3,2AFCnew,2020_Mar_26_1930,2IFCnew,
2IFCnew,38,0,38,0,-1,1,null,11,-1,Hit,0.384145800024271,True,False,1,0,1,stimulus2AFCnew_2IFCnew_2020_Mar_26_1930_527,stimulus2AFCnew_2IFCnew_2020_Mar_26_1930_528,False,3,2AFCnew,2020_Mar_26_1930,2IFCnew,
2IFCnew,39,0,39,0,0.35065539996139705,6,No,11,-1,Miss,0.35075929993763566,True,False,2,2,1,stimulus2AFCnew_2IFCnew_2020_Mar_26_1930_529,stimulus2AFCnew_2IFCnew_2020_Mar_26_1930_530,False,3,2AFCnew,2020_Mar_26_1930,2IFCnew,
2IFCnew,40,0,40,0,-1,1,null,11,-1,Hit,0.34980670001823455,True,False,1,0,1,stimulus2AFCnew_2IFCnew_2020_Mar_26_1930_531,stimulus2AFCnew_2IFCnew_2020_Mar_26_1930_532,False,3,2AFCnew,2020_Mar_26_1930,2IFCnew,
2IFCnew,41,0,41,0,0.5007290999637917,5,Yes,11,-1,False Alarm,0.36750569997821003,False,True,1,1,2,stimulus2AFCnew_2IFCnew_2020_Mar_26_1930_533,stimulus2AFCnew_2IFCnew_2020_Mar_26_1930_534,False,3,2AFCnew,2020_Mar_26_1930,2IFCnew,
2IFCnew,42,0,42,0,-1,4,null,11,-1,Miss,0.31735430005937815,True,False,2,0,1,stimulus2AFCnew_2IFCnew_2020_Mar_26_1930_535,stimulus2AFCnew_2IFCnew_2020_Mar_26_1930_536,False,3,2AFCnew,2020_Mar_26_1930,2IFCnew,
2IFCnew,43,0,43,0,0.48218319995794445,2,Yes,11,-1,Correct Rejection,0.5179640999995172,False,True,2,1,2,stimulus2AFCnew_2IFCnew_2020_Mar_26_1930_537,stimulus2AFCnew_2IFCnew_2020_Mar_26_1930_538,False,3,2AFCnew,2020_Mar_26_1930,2IFCnew,
2IFCnew,44,0,44,0,-1,3,null,11,-1,Correct Rejection,0.5006970000686124,False,True,2,0,2,stimulus2AFCnew_2IFCnew_2020_Mar_26_1930_539,stimulus2AFCnew_2IFCnew_2020_Mar_26_1930_540,False,3,2AFCnew,2020_Mar_26_1930,2IFCnew,
2IFCnew,0,0,0,0,-1,0,null,1,-1,No Answer,-1,False,True,0,0,2,stimulus2AFCnew_2IFCnew_2020_Mar_26_1930_541,stimulus2AFCnew_2IFCnew_2020_Mar_26_1930_542,False,3,2AFCnew,2020_Mar_26_1930,2IFCnew,
2IFCnew,1,0,1,0,0.5006722999969497,6,No,1,-1,Miss,0.4677899000234902,True,False,2,2,1,stimulus2AFCnew_2IFCnew_2020_Mar_26_1930_543,stimulus2AFCnew_2IFCnew_2020_Mar_26_1930_544,False,3,2AFCnew,2020_Mar_26_1930,2IFCnew,
2IFCnew,2,0,2,0,0.3509527000132948,4,Yes,1,-1,Miss,0.36789359990507364,True,False,2,1,1,stimulus2AFCnew_2IFCnew_2020_Mar_26_1930_545,stimulus2AFCnew_2IFCnew_2020_Mar_26_1930_546,False,3,2AFCnew,2020_Mar_26_1930,2IFCnew,
2IFCnew,3,0,3,0,-1,1,null,1,-1,Hit,0.40096940007060766,True,False,1,0,1,stimulus2AFCnew_2IFCnew_2020_Mar_26_1930_547,stimulus2AFCnew_2IFCnew_2020_Mar_26_1930_548,False,3,2AFCnew,2020_Mar_26_1930,2IFCnew,
2IFCnew,4,0,4,0,0.48227259994018823,7,Yes,1,-1,Hit,0.35051959997508675,True,False,1,1,1,stimulus2AFCnew_2IFCnew_2020_Mar_26_1930_549,stimulus2AFCnew_2IFCnew_2020_Mar_26_1930_550,False,3,2AFCnew,2020_Mar_26_1930,2IFCnew,
2IFCnew,5,0,5,0,0.41813179990276694,5,Yes,1,-1,False Alarm,0.28504440002143383,False,True,1,1,2,stimulus2AFCnew_2IFCnew_2020_Mar_26_1930_551,stimulus2AFCnew_2IFCnew_2020_Mar_26_1930_552,False,3,2AFCnew,2020_Mar_26_1930,2IFCnew,
2IFCnew,6,0,6,0,-1,3,null,1,-1,Correct Rejection,0.5677111999830231,False,True,2,0,2,stimulus2AFCnew_2IFCnew_2020_Mar_26_1930_553,stimulus2AFCnew_2IFCnew_2020_Mar_26_1930_554,False,3,2AFCnew,2020_Mar_26_1930,2IFCnew,
2IFCnew,7,0,7,0,-1,1,null,1,-1,Hit,0.48441170004662126,True,False,1,0,1,stimulus2AFCnew_2IFCnew_2020_Mar_26_1930_555,stimulus2AFCnew_2IFCnew_2020_Mar_26_1930_556,False,3,2AFCnew,2020_Mar_26_1930,2IFCnew,
2IFCnew,8,0,8,0,0.3171927999937907,6,No,1,-1,Miss,0.46798089996445924,True,False,2,2,1,stimulus2AFCnew_2IFCnew_2020_Mar_26_1930_557,stimulus2AFCnew_2IFCnew_2020_Mar_26_1930_558,False,3,2AFCnew,2020_Mar_26_1930,2IFCnew,
2IFCnew,9,0,9,0,-1,2,null,1,-1,False Alarm,0.43465609999839216,False,True,1,0,2,stimulus2AFCnew_2IFCnew_2020_Mar_26_1930_559,stimulus2AFCnew_2IFCnew_2020_Mar_26_1930_560,False,3,2AFCnew,2020_Mar_26_1930,2IFCnew,
2IFCnew,10,0,10,0,-1,2,null,1,-1,False Alarm,0.41420140000991523,False,True,1,0,2,stimulus2AFCnew_2IFCnew_2020_Mar_26_1930_561,stimulus2AFCnew_2IFCnew_2020_Mar_26_1930_562,False,3,2AFCnew,2020_Mar_26_1930,2IFCnew,
2IFCnew,11,0,11,0,0.7845947999740019,4,Yes,1,-1,Miss,0.4519637000048533,True,False,2,1,1,stimulus2AFCnew_2IFCnew_2020_Mar_26_1930_563,stimulus2AFCnew_2IFCnew_2020_Mar_26_1930_564,False,3,2AFCnew,2020_Mar_26_1930,2IFCnew,
2IFCnew,12,0,12,0,-1,2,null,1,-1,False Alarm,0.31708599999547005,False,True,1,0,2,stimulus2AFCnew_2IFCnew_2020_Mar_26_1930_565,stimulus2AFCnew_2IFCnew_2020_Mar_26_1930_566,False,3,2AFCnew,2020_Mar_26_1930,2IFCnew,
2IFCnew,13,0,13,0,0.3340354999527335,5,Yes,1,-1,False Alarm,0.416820100042969,False,True,1,1,2,stimulus2AFCnew_2IFCnew_2020_Mar_26_1930_567,stimulus2AFCnew_2IFCnew_2020_Mar_26_1930_568,False,3,2AFCnew,2020_Mar_26_1930,2IFCnew,
2IFCnew,14,0,14,0,-1,2,null,1,-1,False Alarm,0.5009683999232948,False,True,1,0,2,stimulus2AFCnew_2IFCnew_2020_Mar_26_1930_569,stimulus2AFCnew_2IFCnew_2020_Mar_26_1930_570,False,3,2AFCnew,2020_Mar_26_1930,2IFCnew,
2IFCnew,15,0,15,0,-1,4,null,1,-1,Miss,0.3510880999965593,True,False,2,0,1,stimulus2AFCnew_2IFCnew_2020_Mar_26_1930_571,stimulus2AFCnew_2IFCnew_2020_Mar_26_1930_572,False,3,2AFCnew,2020_Mar_26_1930,2IFCnew,
2IFCnew,16,0,16,0,0.7510263998992741,4,Yes,1,-1,Miss,0.5512593999737874,True,False,2,1,1,stimulus2AFCnew_2IFCnew_2020_Mar_26_1930_573,stimulus2AFCnew_2IFCnew_2020_Mar_26_1930_574,False,3,2AFCnew,2020_Mar_26_1930,2IFCnew,
2IFCnew,17,0,17,0,0.7492428999394178,5,Yes,1,-1,False Alarm,0.3847988999914378,False,True,1,1,2,stimulus2AFCnew_2IFCnew_2020_Mar_26_1930_575,stimulus2AFCnew_2IFCnew_2020_Mar_26_1930_576,False,3,2AFCnew,2020_Mar_26_1930,2IFCnew,
2IFCnew,18,0,18,0,0.3999297000700608,5,Yes,1,-1,False Alarm,0.3502314999932423,False,True,1,1,2,stimulus2AFCnew_2IFCnew_2020_Mar_26_1930_577,stimulus2AFCnew_2IFCnew_2020_Mar_26_1930_578,False,3,2AFCnew,2020_Mar_26_1930,2IFCnew,
2IFCnew,19,0,19,0,0.3168256999924779,7,Yes,1,-1,Hit,0.6009466999676079,True,False,1,1,1,stimulus2AFCnew_2IFCnew_2020_Mar_26_1930_579,stimulus2AFCnew_2IFCnew_2020_Mar_26_1930_580,False,3,2AFCnew,2020_Mar_26_1930,2IFCnew,
2IFCnew,20,0,20,0,0.5843592999735847,7,Yes,1,-1,Hit,0.4500087999040261,True,False,1,1,1,stimulus2AFCnew_2IFCnew_2020_Mar_26_1930_581,stimulus2AFCnew_2IFCnew_2020_Mar_26_1930_582,False,3,2AFCnew,2020_Mar_26_1930,2IFCnew,
2IFCnew,21,0,21,0,-1,1,null,1,-1,Hit,0.36757380003109574,True,False,1,0,1,stimulus2AFCnew_2IFCnew_2020_Mar_26_1930_583,stimulus2AFCnew_2IFCnew_2020_Mar_26_1930_584,False,3,2AFCnew,2020_Mar_26_1930,2IFCnew,
2IFCnew,22,0,22,0,-1,1,null,1,-1,Hit,0.40097119996789843,True,False,1,0,1,stimulus2AFCnew_2IFCnew_2020_Mar_26_1930_585,stimulus2AFCnew_2IFCnew_2020_Mar_26_1930_586,False,3,2AFCnew,2020_Mar_26_1930,2IFCnew,
2IFCnew,23,0,23,0,-1,1,null,1,-1,Hit,0.3811590999830514,True,False,1,0,1,stimulus2AFCnew_2IFCnew_2020_Mar_26_1930_587,stimulus2AFCnew_2IFCnew_2020_Mar_26_1930_588,False,3,2AFCnew,2020_Mar_26_1930,2IFCnew,
2IFCnew,24,0,24,0,-1,2,null,1,-1,False Alarm,0.4174098999937996,False,True,1,0,2,stimulus2AFCnew_2IFCnew_2020_Mar_26_1930_589,stimulus2AFCnew_2IFCnew_2020_Mar_26_1930_590,False,3,2AFCnew,2020_Mar_26_1930,2IFCnew,
2IFCnew,25,0,25,0,-1,2,null,1,-1,False Alarm,0.4175814000191167,False,True,1,0,2,stimulus2AFCnew_2IFCnew_2020_Mar_26_1930_591,stimulus2AFCnew_2IFCnew_2020_Mar_26_1930_592,False,3,2AFCnew,2020_Mar_26_1930,2IFCnew,
2IFCnew,26,0,26,0,0.5675491000292823,7,Yes,1,-1,Hit,0.5673803999088705,True,False,1,1,1,stimulus2AFCnew_2IFCnew_2020_Mar_26_1930_593,stimulus2AFCnew_2IFCnew_2020_Mar_26_1930_594,False,3,2AFCnew,2020_Mar_26_1930,2IFCnew,
2IFCnew,27,0,27,0,0.5841178999980912,8,No,1,-1,Correct Rejection,0.3149913999950513,False,True,2,2,2,stimulus2AFCnew_2IFCnew_2020_Mar_26_1930_595,stimulus2AFCnew_2IFCnew_2020_Mar_26_1930_596,False,3,2AFCnew,2020_Mar_26_1930,2IFCnew,
2IFCnew,28,0,28,0,-1,4,null,1,-1,Miss,0.6516318001085892,True,False,2,0,1,stimulus2AFCnew_2IFCnew_2020_Mar_26_1930_597,stimulus2AFCnew_2IFCnew_2020_Mar_26_1930_598,False,3,2AFCnew,2020_Mar_26_1930,2IFCnew,
2IFCnew,29,0,29,0,-1,2,null,1,-1,False Alarm,0.3496900999452919,False,True,1,0,2,stimulus2AFCnew_2IFCnew_2020_Mar_26_1930_599,stimulus2AFCnew_2IFCnew_2020_Mar_26_1930_600,False,3,2AFCnew,2020_Mar_26_1930,2IFCnew,
2IFCnew,30,0,30,0,0.3312176999170333,5,Yes,1,-1,False Alarm,0.2503430999349803,False,True,1,1,2,stimulus2AFCnew_2IFCnew_2020_Mar_26_1930_601,stimulus2AFCnew_2IFCnew_2020_Mar_26_1930_602,False,3,2AFCnew,2020_Mar_26_1930,2IFCnew,
2IFCnew,31,0,31,0,-1,0,null,1,-1,No Answer,-1,True,False,0,0,1,stimulus2AFCnew_2IFCnew_2020_Mar_26_1930_603,stimulus2AFCnew_2IFCnew_2020_Mar_26_1930_604,False,3,2AFCnew,2020_Mar_26_1930,2IFCnew,
2IFCnew,32,0,32,0,0.40073100000154227,1,No,1,-1,Hit,0.4342888999963179,True,False,1,2,1,stimulus2AFCnew_2IFCnew_2020_Mar_26_1930_605,stimulus2AFCnew_2IFCnew_2020_Mar_26_1930_606,False,3,2AFCnew,2020_Mar_26_1930,2IFCnew,
2IFCnew,33,0,33,0,0.3836948999669403,7,Yes,1,-1,Hit,0.49925470002926886,True,False,1,1,1,stimulus2AFCnew_2IFCnew_2020_Mar_26_1930_607,stimulus2AFCnew_2IFCnew_2020_Mar_26_1930_608,False,3,2AFCnew,2020_Mar_26_1930,2IFCnew,
2IFCnew,34,0,34,0,-1,2,null,1,-1,False Alarm,0.3341634999960661,False,True,1,0,2,stimulus2AFCnew_2IFCnew_2020_Mar_26_1930_609,stimulus2AFCnew_2IFCnew_2020_Mar_26_1930_610,False,3,2AFCnew,2020_Mar_26_1930,2IFCnew,
2IFCnew,35,0,35,0,-1,2,null,1,-1,False Alarm,0.4349492999026552,False,True,1,0,2,stimulus2AFCnew_2IFCnew_2020_Mar_26_1930_611,stimulus2AFCnew_2IFCnew_2020_Mar_26_1930_612,False,3,2AFCnew,2020_Mar_26_1930,2IFCnew,
2IFCnew,36,0,36,0,-1,2,null,1,-1,False Alarm,0.2672602999955416,False,True,1,0,2,stimulus2AFCnew_2IFCnew_2020_Mar_26_1930_613,stimulus2AFCnew_2IFCnew_2020_Mar_26_1930_614,False,3,2AFCnew,2020_Mar_26_1930,2IFCnew,
2IFCnew,37,0,37,0,0.45220890000928193,5,Yes,1,-1,False Alarm,0.7510895000305027,False,True,1,1,2,stimulus2AFCnew_2IFCnew_2020_Mar_26_1930_615,stimulus2AFCnew_2IFCnew_2020_Mar_26_1930_616,False,3,2AFCnew,2020_Mar_26_1930,2IFCnew,
2IFCnew,38,0,38,0,-1,2,null,1,-1,False Alarm,0.36758829990867525,False,True,1,0,2,stimulus2AFCnew_2IFCnew_2020_Mar_26_1930_617,stimulus2AFCnew_2IFCnew_2020_Mar_26_1930_618,False,3,2AFCnew,2020_Mar_26_1930,2IFCnew,
2IFCnew,39,0,39,0,-1,1,null,1,-1,Hit,0.34977010008879006,True,False,1,0,1,stimulus2AFCnew_2IFCnew_2020_Mar_26_1930_619,stimulus2AFCnew_2IFCnew_2020_Mar_26_1930_620,False,3,2AFCnew,2020_Mar_26_1930,2IFCnew,
2IFCnew,40,0,40,0,-1,2,null,1,-1,False Alarm,0.30337239999789745,False,True,1,0,2,stimulus2AFCnew_2IFCnew_2020_Mar_26_1930_621,stimulus2AFCnew_2IFCnew_2020_Mar_26_1930_622,False,3,2AFCnew,2020_Mar_26_1930,2IFCnew,
2IFCnew,41,0,41,0,0.33439069997984916,2,Yes,1,-1,Correct Rejection,0.2824978999560699,False,True,2,1,2,stimulus2AFCnew_2IFCnew_2020_Mar_26_1930_623,stimulus2AFCnew_2IFCnew_2020_Mar_26_1930_624,False,3,2AFCnew,2020_Mar_26_1930,2IFCnew,
2IFCnew,42,0,42,0,-1,1,null,1,-1,Hit,0.6009831000119448,True,False,1,0,1,stimulus2AFCnew_2IFCnew_2020_Mar_26_1930_625,stimulus2AFCnew_2IFCnew_2020_Mar_26_1930_626,False,3,2AFCnew,2020_Mar_26_1930,2IFCnew,
2IFCnew,43,0,43,0,0.7350358999101445,5,Yes,1,-1,False Alarm,0.5318334000185132,False,True,1,1,2,stimulus2AFCnew_2IFCnew_2020_Mar_26_1930_627,stimulus2AFCnew_2IFCnew_2020_Mar_26_1930_628,False,3,2AFCnew,2020_Mar_26_1930,2IFCnew,
2IFCnew,44,0,44,0,-1,4,null,1,-1,Miss,0.333673799992539,True,False,2,0,1,stimulus2AFCnew_2IFCnew_2020_Mar_26_1930_629,stimulus2AFCnew_2IFCnew_2020_Mar_26_1930_630,False,3,2AFCnew,2020_Mar_26_1930,2IFCnew,
2IFCnew,0,0,0,0,-1,3,null,9,-1,Correct Rejection,0.3666973999934271,False,True,2,0,2,stimulus2AFCnew_2IFCnew_2020_Mar_26_1930_631,stimulus2AFCnew_2IFCnew_2020_Mar_26_1930_632,False,3,2AFCnew,2020_Mar_26_1930,2IFCnew,
2IFCnew,1,0,1,0,-1,1,null,9,-1,Hit,0.40178840002045035,True,False,1,0,1,stimulus2AFCnew_2IFCnew_2020_Mar_26_1930_633,stimulus2AFCnew_2IFCnew_2020_Mar_26_1930_634,False,3,2AFCnew,2020_Mar_26_1930,2IFCnew,
2IFCnew,2,0,2,0,-1,3,null,9,-1,Correct Rejection,0.5176929000299424,False,True,2,0,2,stimulus2AFCnew_2IFCnew_2020_Mar_26_1930_635,stimulus2AFCnew_2IFCnew_2020_Mar_26_1930_636,False,3,2AFCnew,2020_Mar_26_1930,2IFCnew,
2IFCnew,3,0,3,0,-1,1,null,9,-1,Hit,0.4839516000356525,True,False,1,0,1,stimulus2AFCnew_2IFCnew_2020_Mar_26_1930_637,stimulus2AFCnew_2IFCnew_2020_Mar_26_1930_638,False,3,2AFCnew,2020_Mar_26_1930,2IFCnew,
2IFCnew,4,0,4,0,-1,1,null,9,-1,Hit,0.36497459991369396,True,False,1,0,1,stimulus2AFCnew_2IFCnew_2020_Mar_26_1930_639,stimulus2AFCnew_2IFCnew_2020_Mar_26_1930_640,False,3,2AFCnew,2020_Mar_26_1930,2IFCnew,
2IFCnew,5,0,5,0,-1,1,null,9,-1,Hit,0.46706940000876784,True,False,1,0,1,stimulus2AFCnew_2IFCnew_2020_Mar_26_1930_641,stimulus2AFCnew_2IFCnew_2020_Mar_26_1930_642,False,3,2AFCnew,2020_Mar_26_1930,2IFCnew,
2IFCnew,6,0,6,0,-1,1,null,9,-1,Hit,0.43444340000860393,True,False,1,0,1,stimulus2AFCnew_2IFCnew_2020_Mar_26_1930_643,stimulus2AFCnew_2IFCnew_2020_Mar_26_1930_644,False,3,2AFCnew,2020_Mar_26_1930,2IFCnew,
2IFCnew,7,0,7,0,-1,1,null,9,-1,Hit,0.46774100000038743,True,False,1,0,1,stimulus2AFCnew_2IFCnew_2020_Mar_26_1930_645,stimulus2AFCnew_2IFCnew_2020_Mar_26_1930_646,False,3,2AFCnew,2020_Mar_26_1930,2IFCnew,
2IFCnew,8,0,8,0,-1,1,null,9,-1,Hit,0.41763740009628236,True,False,1,0,1,stimulus2AFCnew_2IFCnew_2020_Mar_26_1930_647,stimulus2AFCnew_2IFCnew_2020_Mar_26_1930_648,False,3,2AFCnew,2020_Mar_26_1930,2IFCnew,
2IFCnew,9,0,9,0,-1,1,null,9,-1,Hit,0.3844060000265017,True,False,1,0,1,stimulus2AFCnew_2IFCnew_2020_Mar_26_1930_649,stimulus2AFCnew_2IFCnew_2020_Mar_26_1930_650,False,3,2AFCnew,2020_Mar_26_1930,2IFCnew,
2IFCnew,10,0,10,0,-1,3,null,9,-1,Correct Rejection,0.534471399965696,False,True,2,0,2,stimulus2AFCnew_2IFCnew_2020_Mar_26_1930_651,stimulus2AFCnew_2IFCnew_2020_Mar_26_1930_652,False,3,2AFCnew,2020_Mar_26_1930,2IFCnew,
2IFCnew,11,0,11,0,-1,0,null,9,-1,No Answer,-1,False,True,0,0,2,stimulus2AFCnew_2IFCnew_2020_Mar_26_1930_653,stimulus2AFCnew_2IFCnew_2020_Mar_26_1930_654,False,3,2AFCnew,2020_Mar_26_1930,2IFCnew,
2IFCnew,12,0,12,0,0.48486460000276566,6,No,9,-1,Miss,0.5343801999697462,True,False,2,2,1,stimulus2AFCnew_2IFCnew_2020_Mar_26_1930_655,stimulus2AFCnew_2IFCnew_2020_Mar_26_1930_656,False,3,2AFCnew,2020_Mar_26_1930,2IFCnew,
2IFCnew,13,0,13,0,-1,3,null,9,-1,Correct Rejection,0.567485100007616,False,True,2,0,2,stimulus2AFCnew_2IFCnew_2020_Mar_26_1930_657,stimulus2AFCnew_2IFCnew_2020_Mar_26_1930_658,False,3,2AFCnew,2020_Mar_26_1930,2IFCnew,
2IFCnew,14,0,14,0,-1,1,null,9,-1,Hit,0.5015296000055969,True,False,1,0,1,stimulus2AFCnew_2IFCnew_2020_Mar_26_1930_659,stimulus2AFCnew_2IFCnew_2020_Mar_26_1930_660,False,3,2AFCnew,2020_Mar_26_1930,2IFCnew,
2IFCnew,15,0,15,0,-1,1,null,9,-1,Hit,0.38432539999485016,True,False,1,0,1,stimulus2AFCnew_2IFCnew_2020_Mar_26_1930_661,stimulus2AFCnew_2IFCnew_2020_Mar_26_1930_662,False,3,2AFCnew,2020_Mar_26_1930,2IFCnew,
2IFCnew,16,0,16,0,0.20069580001290888,5,Yes,9,-1,False Alarm,0.2158031000290066,False,True,1,1,2,stimulus2AFCnew_2IFCnew_2020_Mar_26_1930_663,stimulus2AFCnew_2IFCnew_2020_Mar_26_1930_664,False,3,2AFCnew,2020_Mar_26_1930,2IFCnew,
2IFCnew,17,0,17,0,0.5339775999309495,6,No,9,-1,Miss,0.46539589995518327,True,False,2,2,1,stimulus2AFCnew_2IFCnew_2020_Mar_26_1930_665,stimulus2AFCnew_2IFCnew_2020_Mar_26_1930_666,False,3,2AFCnew,2020_Mar_26_1930,2IFCnew,
2IFCnew,18,0,18,0,0.45272319996729493,2,Yes,9,-1,Correct Rejection,0.4507679999805987,False,True,2,1,2,stimulus2AFCnew_2IFCnew_2020_Mar_26_1930_667,stimulus2AFCnew_2IFCnew_2020_Mar_26_1930_668,False,3,2AFCnew,2020_Mar_26_1930,2IFCnew,
2IFCnew,19,0,19,0,-1,3,null,9,-1,Correct Rejection,0.48425800004042685,False,True,2,0,2,stimulus2AFCnew_2IFCnew_2020_Mar_26_1930_669,stimulus2AFCnew_2IFCnew_2020_Mar_26_1930_670,False,3,2AFCnew,2020_Mar_26_1930,2IFCnew,
2IFCnew,20,0,20,0,-1,3,null,9,-1,Correct Rejection,0.4516746000153944,False,True,2,0,2,stimulus2AFCnew_2IFCnew_2020_Mar_26_1930_671,stimulus2AFCnew_2IFCnew_2020_Mar_26_1930_672,False,3,2AFCnew,2020_Mar_26_1930,2IFCnew,
2IFCnew,21,0,21,0,-1,3,null,9,-1,Correct Rejection,0.4007849999470636,False,True,2,0,2,stimulus2AFCnew_2IFCnew_2020_Mar_26_1930_673,stimulus2AFCnew_2IFCnew_2020_Mar_26_1930_674,False,3,2AFCnew,2020_Mar_26_1930,2IFCnew,
2IFCnew,22,0,22,0,-1,1,null,9,-1,Hit,0.4341282999375835,True,False,1,0,1,stimulus2AFCnew_2IFCnew_2020_Mar_26_1930_675,stimulus2AFCnew_2IFCnew_2020_Mar_26_1930_676,False,3,2AFCnew,2020_Mar_26_1930,2IFCnew,
2IFCnew,23,0,23,0,-1,3,null,9,-1,Correct Rejection,0.4315309999510646,False,True,2,0,2,stimulus2AFCnew_2IFCnew_2020_Mar_26_1930_677,stimulus2AFCnew_2IFCnew_2020_Mar_26_1930_678,False,3,2AFCnew,2020_Mar_26_1930,2IFCnew,
2IFCnew,24,0,24,0,-1,1,null,9,-1,Hit,0.517436100053601,True,False,1,0,1,stimulus2AFCnew_2IFCnew_2020_Mar_26_1930_679,stimulus2AFCnew_2IFCnew_2020_Mar_26_1930_680,False,3,2AFCnew,2020_Mar_26_1930,2IFCnew,
2IFCnew,25,0,25,0,-1,3,null,9,-1,Correct Rejection,0.46747760009020567,False,True,2,0,2,stimulus2AFCnew_2IFCnew_2020_Mar_26_1930_681,stimulus2AFCnew_2IFCnew_2020_Mar_26_1930_682,False,3,2AFCnew,2020_Mar_26_1930,2IFCnew,
2IFCnew,26,0,26,0,-1,3,null,9,-1,Correct Rejection,0.3669380999635905,False,True,2,0,2,stimulus2AFCnew_2IFCnew_2020_Mar_26_1930_683,stimulus2AFCnew_2IFCnew_2020_Mar_26_1930_684,False,3,2AFCnew,2020_Mar_26_1930,2IFCnew,
2IFCnew,27,0,27,0,-1,3,null,9,-1,Correct Rejection,0.4174308000365272,False,True,2,0,2,stimulus2AFCnew_2IFCnew_2020_Mar_26_1930_685,stimulus2AFCnew_2IFCnew_2020_Mar_26_1930_686,False,3,2AFCnew,2020_Mar_26_1930,2IFCnew,
2IFCnew,28,0,28,0,-1,1,null,9,-1,Hit,0.4164363999152556,True,False,1,0,1,stimulus2AFCnew_2IFCnew_2020_Mar_26_1930_687,stimulus2AFCnew_2IFCnew_2020_Mar_26_1930_688,False,3,2AFCnew,2020_Mar_26_1930,2IFCnew,
2IFCnew,29,0,29,0,-1,1,null,9,-1,Hit,0.433068799902685,True,False,1,0,1,stimulus2AFCnew_2IFCnew_2020_Mar_26_1930_689,stimulus2AFCnew_2IFCnew_2020_Mar_26_1930_690,False,3,2AFCnew,2020_Mar_26_1930,2IFCnew,
2IFCnew,30,0,30,0,-1,1,null,9,-1,Hit,0.4508660000283271,True,False,1,0,1,stimulus2AFCnew_2IFCnew_2020_Mar_26_1930_691,stimulus2AFCnew_2IFCnew_2020_Mar_26_1930_692,False,3,2AFCnew,2020_Mar_26_1930,2IFCnew,
2IFCnew,31,0,31,0,-1,1,null,9,-1,Hit,0.4008926999522373,True,False,1,0,1,stimulus2AFCnew_2IFCnew_2020_Mar_26_1930_693,stimulus2AFCnew_2IFCnew_2020_Mar_26_1930_694,False,3,2AFCnew,2020_Mar_26_1930,2IFCnew,
2IFCnew,32,0,32,0,-1,1,null,9,-1,Hit,0.35070210008416325,True,False,1,0,1,stimulus2AFCnew_2IFCnew_2020_Mar_26_1930_695,stimulus2AFCnew_2IFCnew_2020_Mar_26_1930_696,False,3,2AFCnew,2020_Mar_26_1930,2IFCnew,
2IFCnew,33,0,33,0,-1,3,null,9,-1,Correct Rejection,0.4339319000719115,False,True,2,0,2,stimulus2AFCnew_2IFCnew_2020_Mar_26_1930_697,stimulus2AFCnew_2IFCnew_2020_Mar_26_1930_698,False,3,2AFCnew,2020_Mar_26_1930,2IFCnew,
2IFCnew,34,0,34,0,-1,1,null,9,-1,Hit,0.38434119999874383,True,False,1,0,1,stimulus2AFCnew_2IFCnew_2020_Mar_26_1930_699,stimulus2AFCnew_2IFCnew_2020_Mar_26_1930_700,False,3,2AFCnew,2020_Mar_26_1930,2IFCnew,
2IFCnew,35,0,35,0,-1,3,null,9,-1,Correct Rejection,0.4355497000506148,False,True,2,0,2,stimulus2AFCnew_2IFCnew_2020_Mar_26_1930_701,stimulus2AFCnew_2IFCnew_2020_Mar_26_1930_702,False,3,2AFCnew,2020_Mar_26_1930,2IFCnew,
2IFCnew,36,0,36,0,-1,1,null,9,-1,Hit,0.3811218000482768,True,False,1,0,1,stimulus2AFCnew_2IFCnew_2020_Mar_26_1930_703,stimulus2AFCnew_2IFCnew_2020_Mar_26_1930_704,False,3,2AFCnew,2020_Mar_26_1930,2IFCnew,
2IFCnew,37,0,37,0,-1,3,null,9,-1,Correct Rejection,0.43371330003719777,False,True,2,0,2,stimulus2AFCnew_2IFCnew_2020_Mar_26_1930_705,stimulus2AFCnew_2IFCnew_2020_Mar_26_1930_706,False,3,2AFCnew,2020_Mar_26_1930,2IFCnew,
2IFCnew,38,0,38,0,-1,1,null,9,-1,Hit,0.38362939993385226,True,False,1,0,1,stimulus2AFCnew_2IFCnew_2020_Mar_26_1930_707,stimulus2AFCnew_2IFCnew_2020_Mar_26_1930_708,False,3,2AFCnew,2020_Mar_26_1930,2IFCnew,
2IFCnew,39,0,39,0,-1,3,null,9,-1,Correct Rejection,0.36737400002311915,False,True,2,0,2,stimulus2AFCnew_2IFCnew_2020_Mar_26_1930_709,stimulus2AFCnew_2IFCnew_2020_Mar_26_1930_710,False,3,2AFCnew,2020_Mar_26_1930,2IFCnew,
2IFCnew,40,0,40,0,-1,3,null,9,-1,Correct Rejection,0.41797950002364814,False,True,2,0,2,stimulus2AFCnew_2IFCnew_2020_Mar_26_1930_711,stimulus2AFCnew_2IFCnew_2020_Mar_26_1930_712,False,3,2AFCnew,2020_Mar_26_1930,2IFCnew,
2IFCnew,41,0,41,0,-1,1,null,9,-1,Hit,0.317398100043647,True,False,1,0,1,stimulus2AFCnew_2IFCnew_2020_Mar_26_1930_713,stimulus2AFCnew_2IFCnew_2020_Mar_26_1930_714,False,3,2AFCnew,2020_Mar_26_1930,2IFCnew,
2IFCnew,42,0,42,0,-1,1,null,9,-1,Hit,0.33420590008608997,True,False,1,0,1,stimulus2AFCnew_2IFCnew_2020_Mar_26_1930_715,stimulus2AFCnew_2IFCnew_2020_Mar_26_1930_716,False,3,2AFCnew,2020_Mar_26_1930,2IFCnew,
2IFCnew,43,0,43,0,-1,3,null,9,-1,Correct Rejection,0.5663378000026569,False,True,2,0,2,stimulus2AFCnew_2IFCnew_2020_Mar_26_1930_717,stimulus2AFCnew_2IFCnew_2020_Mar_26_1930_718,False,3,2AFCnew,2020_Mar_26_1930,2IFCnew,
2IFCnew,44,0,44,0,-1,3,null,9,-1,Correct Rejection,0.650633699959144,False,True,2,0,2,stimulus2AFCnew_2IFCnew_2020_Mar_26_1930_719,stimulus2AFCnew_2IFCnew_2020_Mar_26_1930_720,False,3,2AFCnew,2020_Mar_26_1930,2IFCnew,
2IFCnew,0,0,0,0,0.5008401999948546,6,No,3,-1,Miss,0.3675606999313459,True,False,2,2,1,stimulus2AFCnew_2IFCnew_2020_Mar_26_1930_721,stimulus2AFCnew_2IFCnew_2020_Mar_26_1930_722,False,3,2AFCnew,2020_Mar_26_1930,2IFCnew,
2IFCnew,1,0,1,0,-1,3,null,3,-1,Correct Rejection,0.45023840002249926,False,True,2,0,2,stimulus2AFCnew_2IFCnew_2020_Mar_26_1930_723,stimulus2AFCnew_2IFCnew_2020_Mar_26_1930_724,False,3,2AFCnew,2020_Mar_26_1930,2IFCnew,
2IFCnew,2,0,2,0,-1,2,null,3,-1,False Alarm,0.40236349997576326,False,True,1,0,2,stimulus2AFCnew_2IFCnew_2020_Mar_26_1930_725,stimulus2AFCnew_2IFCnew_2020_Mar_26_1930_726,False,3,2AFCnew,2020_Mar_26_1930,2IFCnew,
2IFCnew,3,0,3,0,0.38399120001122355,6,No,3,-1,Miss,0.4509396000066772,True,False,2,2,1,stimulus2AFCnew_2IFCnew_2020_Mar_26_1930_727,stimulus2AFCnew_2IFCnew_2020_Mar_26_1930_728,False,3,2AFCnew,2020_Mar_26_1930,2IFCnew,
2IFCnew,4,0,4,0,0.4324598000384867,5,Yes,3,-1,False Alarm,0.30064970010425895,False,True,1,1,2,stimulus2AFCnew_2IFCnew_2020_Mar_26_1930_729,stimulus2AFCnew_2IFCnew_2020_Mar_26_1930_730,False,3,2AFCnew,2020_Mar_26_1930,2IFCnew,
2IFCnew,5,0,5,0,0.4507099000038579,6,No,3,-1,Miss,0.36714369989931583,True,False,2,2,1,stimulus2AFCnew_2IFCnew_2020_Mar_26_1930_731,stimulus2AFCnew_2IFCnew_2020_Mar_26_1930_732,False,3,2AFCnew,2020_Mar_26_1930,2IFCnew,
2IFCnew,6,0,6,0,0.4341130000539124,5,Yes,3,-1,False Alarm,0.3174015999538824,False,True,1,1,2,stimulus2AFCnew_2IFCnew_2020_Mar_26_1930_733,stimulus2AFCnew_2IFCnew_2020_Mar_26_1930_734,False,3,2AFCnew,2020_Mar_26_1930,2IFCnew,
2IFCnew,7,0,7,0,-1,1,null,3,-1,Hit,0.4493337000021711,True,False,1,0,1,stimulus2AFCnew_2IFCnew_2020_Mar_26_1930_735,stimulus2AFCnew_2IFCnew_2020_Mar_26_1930_736,False,3,2AFCnew,2020_Mar_26_1930,2IFCnew,
2IFCnew,8,0,8,0,-1,2,null,3,-1,False Alarm,0.3848279999801889,False,True,1,0,2,stimulus2AFCnew_2IFCnew_2020_Mar_26_1930_737,stimulus2AFCnew_2IFCnew_2020_Mar_26_1930_738,False,3,2AFCnew,2020_Mar_26_1930,2IFCnew,
2IFCnew,9,0,9,0,0.4334570999490097,5,Yes,3,-1,False Alarm,0.35072510002646595,False,True,1,1,2,stimulus2AFCnew_2IFCnew_2020_Mar_26_1930_739,stimulus2AFCnew_2IFCnew_2020_Mar_26_1930_740,False,3,2AFCnew,2020_Mar_26_1930,2IFCnew,
2IFCnew,10,0,10,0,0.4505031999433413,6,No,3,-1,Miss,0.3001327000092715,True,False,2,2,1,stimulus2AFCnew_2IFCnew_2020_Mar_26_1930_741,stimulus2AFCnew_2IFCnew_2020_Mar_26_1930_742,False,3,2AFCnew,2020_Mar_26_1930,2IFCnew,
2IFCnew,11,0,11,0,-1,3,null,3,-1,Correct Rejection,0.6341732000000775,False,True,2,0,2,stimulus2AFCnew_2IFCnew_2020_Mar_26_1930_743,stimulus2AFCnew_2IFCnew_2020_Mar_26_1930_744,False,3,2AFCnew,2020_Mar_26_1930,2IFCnew,
2IFCnew,12,0,12,0,-1,1,null,3,-1,Hit,0.3841243999777362,True,False,1,0,1,stimulus2AFCnew_2IFCnew_2020_Mar_26_1930_745,stimulus2AFCnew_2IFCnew_2020_Mar_26_1930_746,False,3,2AFCnew,2020_Mar_26_1930,2IFCnew,
2IFCnew,13,0,13,0,0.4360409000655636,5,Yes,3,-1,False Alarm,0.3841240999754518,False,True,1,1,2,stimulus2AFCnew_2IFCnew_2020_Mar_26_1930_747,stimulus2AFCnew_2IFCnew_2020_Mar_26_1930_748,False,3,2AFCnew,2020_Mar_26_1930,2IFCnew,
2IFCnew,14,0,14,0,0.5507341000484303,7,Yes,3,-1,Hit,0.4656962000299245,True,False,1,1,1,stimulus2AFCnew_2IFCnew_2020_Mar_26_1930_749,stimulus2AFCnew_2IFCnew_2020_Mar_26_1930_750,False,3,2AFCnew,2020_Mar_26_1930,2IFCnew,
2IFCnew,15,0,15,0,-1,1,null,3,-1,Hit,0.4154168999521062,True,False,1,0,1,stimulus2AFCnew_2IFCnew_2020_Mar_26_1930_751,stimulus2AFCnew_2IFCnew_2020_Mar_26_1930_752,False,3,2AFCnew,2020_Mar_26_1930,2IFCnew,
2IFCnew,16,0,16,0,-1,3,null,3,-1,Correct Rejection,0.36814419995062053,False,True,2,0,2,stimulus2AFCnew_2IFCnew_2020_Mar_26_1930_753,stimulus2AFCnew_2IFCnew_2020_Mar_26_1930_754,False,3,2AFCnew,2020_Mar_26_1930,2IFCnew,
2IFCnew,17,0,17,0,0.5840757999103516,6,No,3,-1,Miss,0.38416339992545545,True,False,2,2,1,stimulus2AFCnew_2IFCnew_2020_Mar_26_1930_755,stimulus2AFCnew_2IFCnew_2020_Mar_26_1930_756,False,3,2AFCnew,2020_Mar_26_1930,2IFCnew,
2IFCnew,18,0,18,0,0.4657593999290839,6,No,3,-1,Miss,0.46758739999495447,True,False,2,2,1,stimulus2AFCnew_2IFCnew_2020_Mar_26_1930_757,stimulus2AFCnew_2IFCnew_2020_Mar_26_1930_758,False,3,2AFCnew,2020_Mar_26_1930,2IFCnew,
2IFCnew,19,0,19,0,-1,1,null,3,-1,Hit,0.3679396000225097,True,False,1,0,1,stimulus2AFCnew_2IFCnew_2020_Mar_26_1930_759,stimulus2AFCnew_2IFCnew_2020_Mar_26_1930_760,False,3,2AFCnew,2020_Mar_26_1930,2IFCnew,
2IFCnew,20,0,20,0,-1,1,null,3,-1,Hit,0.3676617000019178,True,False,1,0,1,stimulus2AFCnew_2IFCnew_2020_Mar_26_1930_761,stimulus2AFCnew_2IFCnew_2020_Mar_26_1930_762,False,3,2AFCnew,2020_Mar_26_1930,2IFCnew,
2IFCnew,21,0,21,0,-1,2,null,3,-1,False Alarm,0.6817997000180185,False,True,1,0,2,stimulus2AFCnew_2IFCnew_2020_Mar_26_1930_763,stimulus2AFCnew_2IFCnew_2020_Mar_26_1930_764,False,3,2AFCnew,2020_Mar_26_1930,2IFCnew,
2IFCnew,22,0,22,0,0.43411390006076545,8,No,3,-1,Correct Rejection,0.4649385999655351,False,True,2,2,2,stimulus2AFCnew_2IFCnew_2020_Mar_26_1930_765,stimulus2AFCnew_2IFCnew_2020_Mar_26_1930_766,False,3,2AFCnew,2020_Mar_26_1930,2IFCnew,
2IFCnew,23,0,23,0,-1,1,null,3,-1,Hit,0.5660884999670088,True,False,1,0,1,stimulus2AFCnew_2IFCnew_2020_Mar_26_1930_767,stimulus2AFCnew_2IFCnew_2020_Mar_26_1930_768,False,3,2AFCnew,2020_Mar_26_1930,2IFCnew,
2IFCnew,24,0,24,0,-1,2,null,3,-1,False Alarm,0.3509198999963701,False,True,1,0,2,stimulus2AFCnew_2IFCnew_2020_Mar_26_1930_769,stimulus2AFCnew_2IFCnew_2020_Mar_26_1930_770,False,3,2AFCnew,2020_Mar_26_1930,2IFCnew,
2IFCnew,25,0,25,0,-1,3,null,3,-1,Correct Rejection,0.4507519999751821,False,True,2,0,2,stimulus2AFCnew_2IFCnew_2020_Mar_26_1930_771,stimulus2AFCnew_2IFCnew_2020_Mar_26_1930_772,False,3,2AFCnew,2020_Mar_26_1930,2IFCnew,
2IFCnew,26,0,26,0,-1,2,null,3,-1,False Alarm,0.567628400051035,False,True,1,0,2,stimulus2AFCnew_2IFCnew_2020_Mar_26_1930_773,stimulus2AFCnew_2IFCnew_2020_Mar_26_1930_774,False,3,2AFCnew,2020_Mar_26_1930,2IFCnew,
2IFCnew,27,0,27,0,-1,3,null,3,-1,Correct Rejection,0.45048050000332296,False,True,2,0,2,stimulus2AFCnew_2IFCnew_2020_Mar_26_1930_775,stimulus2AFCnew_2IFCnew_2020_Mar_26_1930_776,False,3,2AFCnew,2020_Mar_26_1930,2IFCnew,
2IFCnew,28,0,28,0,0.43643430003430694,8,No,3,-1,Correct Rejection,0.3983171000145376,False,True,2,2,2,stimulus2AFCnew_2IFCnew_2020_Mar_26_1930_777,stimulus2AFCnew_2IFCnew_2020_Mar_26_1930_778,False,3,2AFCnew,2020_Mar_26_1930,2IFCnew,
2IFCnew,29,0,29,0,-1,2,null,3,-1,False Alarm,0.3008234000299126,False,True,1,0,2,stimulus2AFCnew_2IFCnew_2020_Mar_26_1930_779,stimulus2AFCnew_2IFCnew_2020_Mar_26_1930_780,False,3,2AFCnew,2020_Mar_26_1930,2IFCnew,
2IFCnew,30,0,30,0,-1,2,null,3,-1,False Alarm,0.41751359996851534,False,True,1,0,2,stimulus2AFCnew_2IFCnew_2020_Mar_26_1930_781,stimulus2AFCnew_2IFCnew_2020_Mar_26_1930_782,False,3,2AFCnew,2020_Mar_26_1930,2IFCnew,
2IFCnew,31,0,31,0,-1,1,null,3,-1,Hit,0.5175762000726536,True,False,1,0,1,stimulus2AFCnew_2IFCnew_2020_Mar_26_1930_783,stimulus2AFCnew_2IFCnew_2020_Mar_26_1930_784,False,3,2AFCnew,2020_Mar_26_1930,2IFCnew,
2IFCnew,32,0,32,0,-1,1,null,3,-1,Hit,0.4672413000371307,True,False,1,0,1,stimulus2AFCnew_2IFCnew_2020_Mar_26_1930_785,stimulus2AFCnew_2IFCnew_2020_Mar_26_1930_786,False,3,2AFCnew,2020_Mar_26_1930,2IFCnew,
2IFCnew,33,0,33,0,-1,2,null,3,-1,False Alarm,0.5006897000130266,False,True,1,0,2,stimulus2AFCnew_2IFCnew_2020_Mar_26_1930_787,stimulus2AFCnew_2IFCnew_2020_Mar_26_1930_788,False,3,2AFCnew,2020_Mar_26_1930,2IFCnew,
2IFCnew,34,0,34,0,-1,3,null,3,-1,Correct Rejection,0.5180475999368355,False,True,2,0,2,stimulus2AFCnew_2IFCnew_2020_Mar_26_1930_789,stimulus2AFCnew_2IFCnew_2020_Mar_26_1930_790,False,3,2AFCnew,2020_Mar_26_1930,2IFCnew,
2IFCnew,35,0,35,0,-1,1,null,3,-1,Hit,0.5513016000622883,True,False,1,0,1,stimulus2AFCnew_2IFCnew_2020_Mar_26_1930_791,stimulus2AFCnew_2IFCnew_2020_Mar_26_1930_792,False,3,2AFCnew,2020_Mar_26_1930,2IFCnew,
2IFCnew,36,0,36,0,0.5650298000546172,8,No,3,-1,Correct Rejection,0.734088100027293,False,True,2,2,2,stimulus2AFCnew_2IFCnew_2020_Mar_26_1930_793,stimulus2AFCnew_2IFCnew_2020_Mar_26_1930_794,False,3,2AFCnew,2020_Mar_26_1930,2IFCnew,
2IFCnew,37,0,37,0,-1,1,null,3,-1,Hit,0.5644201999530196,True,False,1,0,1,stimulus2AFCnew_2IFCnew_2020_Mar_26_1930_795,stimulus2AFCnew_2IFCnew_2020_Mar_26_1930_796,False,3,2AFCnew,2020_Mar_26_1930,2IFCnew,
2IFCnew,38,0,38,0,-1,3,null,3,-1,Correct Rejection,0.4009963000426069,False,True,2,0,2,stimulus2AFCnew_2IFCnew_2020_Mar_26_1930_797,stimulus2AFCnew_2IFCnew_2020_Mar_26_1930_798,False,3,2AFCnew,2020_Mar_26_1930,2IFCnew,
2IFCnew,39,0,39,0,-1,4,null,3,-1,Miss,0.5679370000725612,True,False,2,0,1,stimulus2AFCnew_2IFCnew_2020_Mar_26_1930_799,stimulus2AFCnew_2IFCnew_2020_Mar_26_1930_800,False,3,2AFCnew,2020_Mar_26_1930,2IFCnew,
2IFCnew,40,0,40,0,-1,4,null,3,-1,Miss,0.5670243999920785,True,False,2,0,1,stimulus2AFCnew_2IFCnew_2020_Mar_26_1930_801,stimulus2AFCnew_2IFCnew_2020_Mar_26_1930_802,False,3,2AFCnew,2020_Mar_26_1930,2IFCnew,
2IFCnew,41,0,41,0,-1,1,null,3,-1,Hit,0.36691340000834316,True,False,1,0,1,stimulus2AFCnew_2IFCnew_2020_Mar_26_1930_803,stimulus2AFCnew_2IFCnew_2020_Mar_26_1930_804,False,3,2AFCnew,2020_Mar_26_1930,2IFCnew,
2IFCnew,42,0,42,0,-1,2,null,3,-1,False Alarm,0.43431130005046725,False,True,1,0,2,stimulus2AFCnew_2IFCnew_2020_Mar_26_1930_805,stimulus2AFCnew_2IFCnew_2020_Mar_26_1930_806,False,3,2AFCnew,2020_Mar_26_1930,2IFCnew,
2IFCnew,43,0,43,0,0.33439679990988225,5,Yes,3,-1,False Alarm,0.28382480004802346,False,True,1,1,2,stimulus2AFCnew_2IFCnew_2020_Mar_26_1930_807,stimulus2AFCnew_2IFCnew_2020_Mar_26_1930_808,False,3,2AFCnew,2020_Mar_26_1930,2IFCnew,
2IFCnew,44,0,44,0,0.749925300013274,7,Yes,3,-1,Hit,0.3851327000884339,True,False,1,1,1,stimulus2AFCnew_2IFCnew_2020_Mar_26_1930_809,stimulus2AFCnew_2IFCnew_2020_Mar_26_1930_810,False,3,2AFCnew,2020_Mar_26_1930,2IFCnew,
2IFCnew,0,0,0,0,0.5173748999368399,6,No,7,-1,Miss,0.4172679999610409,True,False,2,2,1,stimulus2AFCnew_2IFCnew_2020_Mar_26_1930_811,stimulus2AFCnew_2IFCnew_2020_Mar_26_1930_812,False,3,2AFCnew,2020_Mar_26_1930,2IFCnew,
2IFCnew,1,0,1,0,-1,1,null,7,-1,Hit,0.5671622999943793,True,False,1,0,1,stimulus2AFCnew_2IFCnew_2020_Mar_26_1930_813,stimulus2AFCnew_2IFCnew_2020_Mar_26_1930_814,False,3,2AFCnew,2020_Mar_26_1930,2IFCnew,
2IFCnew,2,0,2,0,-1,3,null,7,-1,Correct Rejection,0.38403610000386834,False,True,2,0,2,stimulus2AFCnew_2IFCnew_2020_Mar_26_1930_815,stimulus2AFCnew_2IFCnew_2020_Mar_26_1930_816,False,3,2AFCnew,2020_Mar_26_1930,2IFCnew,
2IFCnew,3,0,3,0,-1,1,null,7,-1,Hit,0.4341961999889463,True,False,1,0,1,stimulus2AFCnew_2IFCnew_2020_Mar_26_1930_817,stimulus2AFCnew_2IFCnew_2020_Mar_26_1930_818,False,3,2AFCnew,2020_Mar_26_1930,2IFCnew,
2IFCnew,4,0,4,0,-1,1,null,7,-1,Hit,0.4170652999309823,True,False,1,0,1,stimulus2AFCnew_2IFCnew_2020_Mar_26_1930_819,stimulus2AFCnew_2IFCnew_2020_Mar_26_1930_820,False,3,2AFCnew,2020_Mar_26_1930,2IFCnew,
2IFCnew,5,0,5,0,-1,1,null,7,-1,Hit,0.684378599980846,True,False,1,0,1,stimulus2AFCnew_2IFCnew_2020_Mar_26_1930_821,stimulus2AFCnew_2IFCnew_2020_Mar_26_1930_822,False,3,2AFCnew,2020_Mar_26_1930,2IFCnew,
2IFCnew,6,0,6,0,-1,1,null,7,-1,Hit,0.3343487000092864,True,False,1,0,1,stimulus2AFCnew_2IFCnew_2020_Mar_26_1930_823,stimulus2AFCnew_2IFCnew_2020_Mar_26_1930_824,False,3,2AFCnew,2020_Mar_26_1930,2IFCnew,
2IFCnew,7,0,7,0,0.06746930000372231,5,Yes,7,-1,False Alarm,0.28597339999396354,False,True,1,1,2,stimulus2AFCnew_2IFCnew_2020_Mar_26_1930_825,stimulus2AFCnew_2IFCnew_2020_Mar_26_1930_826,False,3,2AFCnew,2020_Mar_26_1930,2IFCnew,
2IFCnew,8,0,8,0,-1,4,null,7,-1,Miss,0.4172959999414161,True,False,2,0,1,stimulus2AFCnew_2IFCnew_2020_Mar_26_1930_827,stimulus2AFCnew_2IFCnew_2020_Mar_26_1930_828,False,3,2AFCnew,2020_Mar_26_1930,2IFCnew,
2IFCnew,9,0,9,0,0.21793699997942895,5,Yes,7,-1,False Alarm,0.3007372000720352,False,True,1,1,2,stimulus2AFCnew_2IFCnew_2020_Mar_26_1930_829,stimulus2AFCnew_2IFCnew_2020_Mar_26_1930_830,False,3,2AFCnew,2020_Mar_26_1930,2IFCnew,
2IFCnew,10,0,10,0,-1,3,null,7,-1,Correct Rejection,0.3147085999371484,False,True,2,0,2,stimulus2AFCnew_2IFCnew_2020_Mar_26_1930_831,stimulus2AFCnew_2IFCnew_2020_Mar_26_1930_832,False,3,2AFCnew,2020_Mar_26_1930,2IFCnew,
2IFCnew,11,0,11,0,-1,3,null,7,-1,Correct Rejection,0.33378940005786717,False,True,2,0,2,stimulus2AFCnew_2IFCnew_2020_Mar_26_1930_833,stimulus2AFCnew_2IFCnew_2020_Mar_26_1930_834,False,3,2AFCnew,2020_Mar_26_1930,2IFCnew,
2IFCnew,12,0,12,0,-1,1,null,7,-1,Hit,0.48424279992468655,True,False,1,0,1,stimulus2AFCnew_2IFCnew_2020_Mar_26_1930_835,stimulus2AFCnew_2IFCnew_2020_Mar_26_1930_836,False,3,2AFCnew,2020_Mar_26_1930,2IFCnew,
2IFCnew,13,0,13,0,-1,1,null,7,-1,Hit,0.35072690004017204,True,False,1,0,1,stimulus2AFCnew_2IFCnew_2020_Mar_26_1930_837,stimulus2AFCnew_2IFCnew_2020_Mar_26_1930_838,False,3,2AFCnew,2020_Mar_26_1930,2IFCnew,
2IFCnew,14,0,14,0,-1,3,null,7,-1,Correct Rejection,0.3837597999954596,False,True,2,0,2,stimulus2AFCnew_2IFCnew_2020_Mar_26_1930_839,stimulus2AFCnew_2IFCnew_2020_Mar_26_1930_840,False,3,2AFCnew,2020_Mar_26_1930,2IFCnew,
2IFCnew,15,0,15,0,0.634483200032264,5,Yes,7,-1,False Alarm,0.2342125999275595,False,True,1,1,2,stimulus2AFCnew_2IFCnew_2020_Mar_26_1930_841,stimulus2AFCnew_2IFCnew_2020_Mar_26_1930_842,False,3,2AFCnew,2020_Mar_26_1930,2IFCnew,
2IFCnew,16,0,16,0,-1,3,null,7,-1,Correct Rejection,0.46693669992964715,False,True,2,0,2,stimulus2AFCnew_2IFCnew_2020_Mar_26_1930_843,stimulus2AFCnew_2IFCnew_2020_Mar_26_1930_844,False,3,2AFCnew,2020_Mar_26_1930,2IFCnew,
2IFCnew,17,0,17,0,-1,1,null,7,-1,Hit,0.28495460003614426,True,False,1,0,1,stimulus2AFCnew_2IFCnew_2020_Mar_26_1930_845,stimulus2AFCnew_2IFCnew_2020_Mar_26_1930_846,False,3,2AFCnew,2020_Mar_26_1930,2IFCnew,
2IFCnew,18,0,18,0,0.23384939995594323,5,Yes,7,-1,False Alarm,0.36770530010107905,False,True,1,1,2,stimulus2AFCnew_2IFCnew_2020_Mar_26_1930_847,stimulus2AFCnew_2IFCnew_2020_Mar_26_1930_848,False,3,2AFCnew,2020_Mar_26_1930,2IFCnew,
2IFCnew,19,0,19,0,0.21710350003559142,6,No,7,-1,Miss,0.38401219993829727,True,False,2,2,1,stimulus2AFCnew_2IFCnew_2020_Mar_26_1930_849,stimulus2AFCnew_2IFCnew_2020_Mar_26_1930_850,False,3,2AFCnew,2020_Mar_26_1930,2IFCnew,
2IFCnew,20,0,20,0,-1,3,null,7,-1,Correct Rejection,0.41714869998395443,False,True,2,0,2,stimulus2AFCnew_2IFCnew_2020_Mar_26_1930_851,stimulus2AFCnew_2IFCnew_2020_Mar_26_1930_852,False,3,2AFCnew,2020_Mar_26_1930,2IFCnew,
2IFCnew,21,0,21,0,-1,1,null,7,-1,Hit,0.367999600013718,True,False,1,0,1,stimulus2AFCnew_2IFCnew_2020_Mar_26_1930_853,stimulus2AFCnew_2IFCnew_2020_Mar_26_1930_854,False,3,2AFCnew,2020_Mar_26_1930,2IFCnew,
2IFCnew,22,0,22,0,-1,2,null,7,-1,False Alarm,0.4183291000081226,False,True,1,0,2,stimulus2AFCnew_2IFCnew_2020_Mar_26_1930_855,stimulus2AFCnew_2IFCnew_2020_Mar_26_1930_856,False,3,2AFCnew,2020_Mar_26_1930,2IFCnew,
2IFCnew,23,0,23,0,0.25063210004009306,5,Yes,7,-1,False Alarm,0.40081979997921735,False,True,1,1,2,stimulus2AFCnew_2IFCnew_2020_Mar_26_1930_857,stimulus2AFCnew_2IFCnew_2020_Mar_26_1930_858,False,3,2AFCnew,2020_Mar_26_1930,2IFCnew,
2IFCnew,24,0,24,0,-1,1,null,7,-1,Hit,0.3998898999998346,True,False,1,0,1,stimulus2AFCnew_2IFCnew_2020_Mar_26_1930_859,stimulus2AFCnew_2IFCnew_2020_Mar_26_1930_860,False,3,2AFCnew,2020_Mar_26_1930,2IFCnew,
2IFCnew,25,0,25,0,-1,3,null,7,-1,Correct Rejection,0.450604600016959,False,True,2,0,2,stimulus2AFCnew_2IFCnew_2020_Mar_26_1930_861,stimulus2AFCnew_2IFCnew_2020_Mar_26_1930_862,False,3,2AFCnew,2020_Mar_26_1930,2IFCnew,
2IFCnew,26,0,26,0,-1,1,null,7,-1,Hit,0.3333868000190705,True,False,1,0,1,stimulus2AFCnew_2IFCnew_2020_Mar_26_1930_863,stimulus2AFCnew_2IFCnew_2020_Mar_26_1930_864,False,3,2AFCnew,2020_Mar_26_1930,2IFCnew,
2IFCnew,27,0,27,0,-1,1,null,7,-1,Hit,0.3671021000482142,True,False,1,0,1,stimulus2AFCnew_2IFCnew_2020_Mar_26_1930_865,stimulus2AFCnew_2IFCnew_2020_Mar_26_1930_866,False,3,2AFCnew,2020_Mar_26_1930,2IFCnew,
2IFCnew,28,0,28,0,-1,1,null,7,-1,Hit,0.4010818999959156,True,False,1,0,1,stimulus2AFCnew_2IFCnew_2020_Mar_26_1930_867,stimulus2AFCnew_2IFCnew_2020_Mar_26_1930_868,False,3,2AFCnew,2020_Mar_26_1930,2IFCnew,
2IFCnew,29,0,29,0,0.6185309999855235,5,Yes,7,-1,False Alarm,0.3009941999334842,False,True,1,1,2,stimulus2AFCnew_2IFCnew_2020_Mar_26_1930_869,stimulus2AFCnew_2IFCnew_2020_Mar_26_1930_870,False,3,2AFCnew,2020_Mar_26_1930,2IFCnew,
2IFCnew,30,0,30,0,-1,1,null,7,-1,Hit,0.2673830999992788,True,False,1,0,1,stimulus2AFCnew_2IFCnew_2020_Mar_26_1930_871,stimulus2AFCnew_2IFCnew_2020_Mar_26_1930_872,False,3,2AFCnew,2020_Mar_26_1930,2IFCnew,
2IFCnew,31,0,31,0,-1,3,null,7,-1,Correct Rejection,0.5519857000326738,False,True,2,0,2,stimulus2AFCnew_2IFCnew_2020_Mar_26_1930_873,stimulus2AFCnew_2IFCnew_2020_Mar_26_1930_874,False,3,2AFCnew,2020_Mar_26_1930,2IFCnew,
2IFCnew,32,0,32,0,-1,3,null,7,-1,Correct Rejection,0.5843301999848336,False,True,2,0,2,stimulus2AFCnew_2IFCnew_2020_Mar_26_1930_875,stimulus2AFCnew_2IFCnew_2020_Mar_26_1930_876,False,3,2AFCnew,2020_Mar_26_1930,2IFCnew,
2IFCnew,33,0,33,0,0.46729279996361583,6,No,7,-1,Miss,0.4336615999927744,True,False,2,2,1,stimulus2AFCnew_2IFCnew_2020_Mar_26_1930_877,stimulus2AFCnew_2IFCnew_2020_Mar_26_1930_878,False,3,2AFCnew,2020_Mar_26_1930,2IFCnew,
2IFCnew,34,0,34,0,0.5839697000337765,7,Yes,7,-1,Hit,0.41851840005256236,True,False,1,1,1,stimulus2AFCnew_2IFCnew_2020_Mar_26_1930_879,stimulus2AFCnew_2IFCnew_2020_Mar_26_1930_880,False,3,2AFCnew,2020_Mar_26_1930,2IFCnew,
2IFCnew,35,0,35,0,-1,3,null,7,-1,Correct Rejection,0.38436989998444915,False,True,2,0,2,stimulus2AFCnew_2IFCnew_2020_Mar_26_1930_881,stimulus2AFCnew_2IFCnew_2020_Mar_26_1930_882,False,3,2AFCnew,2020_Mar_26_1930,2IFCnew,
2IFCnew,36,0,36,0,0.5177969000069425,8,No,7,-1,Correct Rejection,0.6006656000390649,False,True,2,2,2,stimulus2AFCnew_2IFCnew_2020_Mar_26_1930_883,stimulus2AFCnew_2IFCnew_2020_Mar_26_1930_884,False,3,2AFCnew,2020_Mar_26_1930,2IFCnew,
2IFCnew,37,0,37,0,0.5006297000218183,1,No,7,-1,Hit,0.36746239999774843,True,False,1,2,1,stimulus2AFCnew_2IFCnew_2020_Mar_26_1930_885,stimulus2AFCnew_2IFCnew_2020_Mar_26_1930_886,False,3,2AFCnew,2020_Mar_26_1930,2IFCnew,
2IFCnew,38,0,38,0,-1,1,null,7,-1,Hit,0.4173359000124037,True,False,1,0,1,stimulus2AFCnew_2IFCnew_2020_Mar_26_1930_887,stimulus2AFCnew_2IFCnew_2020_Mar_26_1930_888,False,3,2AFCnew,2020_Mar_26_1930,2IFCnew,
2IFCnew,39,0,39,0,-1,1,null,7,-1,Hit,0.400543799973093,True,False,1,0,1,stimulus2AFCnew_2IFCnew_2020_Mar_26_1930_889,stimulus2AFCnew_2IFCnew_2020_Mar_26_1930_890,False,3,2AFCnew,2020_Mar_26_1930,2IFCnew,
2IFCnew,40,0,40,0,-1,1,null,7,-1,Hit,0.3675963000860065,True,False,1,0,1,stimulus2AFCnew_2IFCnew_2020_Mar_26_1930_891,stimulus2AFCnew_2IFCnew_2020_Mar_26_1930_892,False,3,2AFCnew,2020_Mar_26_1930,2IFCnew,
2IFCnew,41,0,41,0,-1,1,null,7,-1,Hit,0.35094339994248,True,False,1,0,1,stimulus2AFCnew_2IFCnew_2020_Mar_26_1930_893,stimulus2AFCnew_2IFCnew_2020_Mar_26_1930_894,False,3,2AFCnew,2020_Mar_26_1930,2IFCnew,
2IFCnew,42,0,42,0,-1,1,null,7,-1,Hit,0.30174070002976805,True,False,1,0,1,stimulus2AFCnew_2IFCnew_2020_Mar_26_1930_895,stimulus2AFCnew_2IFCnew_2020_Mar_26_1930_896,False,3,2AFCnew,2020_Mar_26_1930,2IFCnew,
2IFCnew,43,0,43,0,0.23387300001922995,5,Yes,7,-1,False Alarm,0.3842481999890879,False,True,1,1,2,stimulus2AFCnew_2IFCnew_2020_Mar_26_1930_897,stimulus2AFCnew_2IFCnew_2020_Mar_26_1930_898,False,3,2AFCnew,2020_Mar_26_1930,2IFCnew,
2IFCnew,44,0,44,0,-1,3,null,7,-1,Correct Rejection,0.4845268999924883,False,True,2,0,2,stimulus2AFCnew_2IFCnew_2020_Mar_26_1930_899,stimulus2AFCnew_2IFCnew_2020_Mar_26_1930_900,False,3,2AFCnew,2020_Mar_26_1930,2IFCnew,
2IFCnew,0,0,0,0,0.45116100006271154,6,No,2,-1,Miss,0.3506186999147758,True,False,2,2,1,stimulus2AFCnew_2IFCnew_2020_Mar_26_1930_901,stimulus2AFCnew_2IFCnew_2020_Mar_26_1930_902,False,3,2AFCnew,2020_Mar_26_1930,2IFCnew,
2IFCnew,1,0,1,0,0.3004937000805512,5,Yes,2,-1,False Alarm,0.3006830000085756,False,True,1,1,2,stimulus2AFCnew_2IFCnew_2020_Mar_26_1930_903,stimulus2AFCnew_2IFCnew_2020_Mar_26_1930_904,False,3,2AFCnew,2020_Mar_26_1930,2IFCnew,
2IFCnew,2,0,2,0,-1,4,null,2,-1,Miss,0.4168691999511793,True,False,2,0,1,stimulus2AFCnew_2IFCnew_2020_Mar_26_1930_905,stimulus2AFCnew_2IFCnew_2020_Mar_26_1930_906,False,3,2AFCnew,2020_Mar_26_1930,2IFCnew,
2IFCnew,3,0,3,0,0.23368910001590848,8,No,2,-1,Correct Rejection,0.534916500095278,False,True,2,2,2,stimulus2AFCnew_2IFCnew_2020_Mar_26_1930_907,stimulus2AFCnew_2IFCnew_2020_Mar_26_1930_908,False,3,2AFCnew,2020_Mar_26_1930,2IFCnew,
2IFCnew,4,0,4,0,0.41719790000934154,7,Yes,2,-1,Hit,0.3509792999830097,True,False,1,1,1,stimulus2AFCnew_2IFCnew_2020_Mar_26_1930_909,stimulus2AFCnew_2IFCnew_2020_Mar_26_1930_910,False,3,2AFCnew,2020_Mar_26_1930,2IFCnew,
2IFCnew,5,0,5,0,0.2338552000001073,6,No,2,-1,Miss,0.5503880999749526,True,False,2,2,1,stimulus2AFCnew_2IFCnew_2020_Mar_26_1930_911,stimulus2AFCnew_2IFCnew_2020_Mar_26_1930_912,False,3,2AFCnew,2020_Mar_26_1930,2IFCnew,
2IFCnew,6,0,6,0,0.5828372000250965,7,Yes,2,-1,Hit,0.5675009000115097,True,False,1,1,1,stimulus2AFCnew_2IFCnew_2020_Mar_26_1930_913,stimulus2AFCnew_2IFCnew_2020_Mar_26_1930_914,False,3,2AFCnew,2020_Mar_26_1930,2IFCnew,
2IFCnew,7,0,7,0,-1,1,null,2,-1,Hit,0.41608619992621243,True,False,1,0,1,stimulus2AFCnew_2IFCnew_2020_Mar_26_1930_915,stimulus2AFCnew_2IFCnew_2020_Mar_26_1930_916,False,3,2AFCnew,2020_Mar_26_1930,2IFCnew,
2IFCnew,8,0,8,0,-1,1,null,2,-1,Hit,0.5010995999909937,True,False,1,0,1,stimulus2AFCnew_2IFCnew_2020_Mar_26_1930_917,stimulus2AFCnew_2IFCnew_2020_Mar_26_1930_918,False,3,2AFCnew,2020_Mar_26_1930,2IFCnew,
2IFCnew,9,0,9,0,0.45055810001213104,3,No,2,-1,False Alarm,0.3509467000840232,False,True,1,2,2,stimulus2AFCnew_2IFCnew_2020_Mar_26_1930_919,stimulus2AFCnew_2IFCnew_2020_Mar_26_1930_920,False,3,2AFCnew,2020_Mar_26_1930,2IFCnew,
2IFCnew,10,0,10,0,-1,3,null,2,-1,Correct Rejection,0.40353539993520826,False,True,2,0,2,stimulus2AFCnew_2IFCnew_2020_Mar_26_1930_921,stimulus2AFCnew_2IFCnew_2020_Mar_26_1930_922,False,3,2AFCnew,2020_Mar_26_1930,2IFCnew,
2IFCnew,11,0,11,0,-1,1,null,2,-1,Hit,0.23124969995114952,True,False,1,0,1,stimulus2AFCnew_2IFCnew_2020_Mar_26_1930_923,stimulus2AFCnew_2IFCnew_2020_Mar_26_1930_924,False,3,2AFCnew,2020_Mar_26_1930,2IFCnew,
2IFCnew,12,0,12,0,-1,1,null,2,-1,Hit,0.23426569998264313,True,False,1,0,1,stimulus2AFCnew_2IFCnew_2020_Mar_26_1930_925,stimulus2AFCnew_2IFCnew_2020_Mar_26_1930_926,False,3,2AFCnew,2020_Mar_26_1930,2IFCnew,
