Task,trials.thisRepN,trials.thisTrialN,trials.thisN,trials.thisIndex,time_response_second,response_2IFCnew,response_key2Interval_2IFCnew,signal_intensity,constant Value,response,time_response,signal_on_stimuluspos1,signal_on_stimuluspos2,first_answer,second_answer,stimulus_pos,stimulus_name_pos1,stimulus_name_pos2,random_intensity,session,participant,date,expName,
2IFCnew,0,0,0,0,-1,3,null,4,-1,Correct Rejection,0.4684428999898955,False,True,2,0,2,stimulus2AFCnew_2IFCnew_2020_Mar_26_1838_1,stimulus2AFCnew_2IFCnew_2020_Mar_26_1838_2,False,2,2AFCnew,2020_Mar_26_1838,2IFCnew,
2IFCnew,1,0,1,0,0.1847379000391811,5,Yes,4,-1,False Alarm,0.3995955000864342,False,True,1,1,2,stimulus2AFCnew_2IFCnew_2020_Mar_26_1838_3,stimulus2AFCnew_2IFCnew_2020_Mar_26_1838_4,False,2,2AFCnew,2020_Mar_26_1838,2IFCnew,
2IFCnew,2,0,2,0,0.317169800051488,6,No,4,-1,Miss,0.42043790000025183,True,False,2,2,1,stimulus2AFCnew_2IFCnew_2020_Mar_26_1838_5,stimulus2AFCnew_2IFCnew_2020_Mar_26_1838_6,False,2,2AFCnew,2020_Mar_26_1838,2IFCnew,
2IFCnew,3,0,3,0,-1,3,null,4,-1,Correct Rejection,0.5007334999972954,False,True,2,0,2,stimulus2AFCnew_2IFCnew_2020_Mar_26_1838_7,stimulus2AFCnew_2IFCnew_2020_Mar_26_1838_8,False,2,2AFCnew,2020_Mar_26_1838,2IFCnew,
2IFCnew,4,0,4,0,0.2509167999960482,5,Yes,4,-1,False Alarm,0.8152948999777436,False,True,1,1,2,stimulus2AFCnew_2IFCnew_2020_Mar_26_1838_9,stimulus2AFCnew_2IFCnew_2020_Mar_26_1838_10,False,2,2AFCnew,2020_Mar_26_1838,2IFCnew,
2IFCnew,5,0,5,0,0.5176852999720722,6,No,4,-1,Miss,0.5008322999347001,True,False,2,2,1,stimulus2AFCnew_2IFCnew_2020_Mar_26_1838_11,stimulus2AFCnew_2IFCnew_2020_Mar_26_1838_12,False,2,2AFCnew,2020_Mar_26_1838,2IFCnew,
2IFCnew,6,0,6,0,-1,1,null,4,-1,Hit,0.6556942000752315,True,False,1,0,1,stimulus2AFCnew_2IFCnew_2020_Mar_26_1838_13,stimulus2AFCnew_2IFCnew_2020_Mar_26_1838_14,False,2,2AFCnew,2020_Mar_26_1838,2IFCnew,
2IFCnew,7,0,7,0,-1,1,null,4,-1,Hit,0.43316749995574355,True,False,1,0,1,stimulus2AFCnew_2IFCnew_2020_Mar_26_1838_15,stimulus2AFCnew_2IFCnew_2020_Mar_26_1838_16,False,2,2AFCnew,2020_Mar_26_1838,2IFCnew,
2IFCnew,8,0,8,0,-1,3,null,4,-1,Correct Rejection,0.5031735999509692,False,True,2,0,2,stimulus2AFCnew_2IFCnew_2020_Mar_26_1838_17,stimulus2AFCnew_2IFCnew_2020_Mar_26_1838_18,False,2,2AFCnew,2020_Mar_26_1838,2IFCnew,
2IFCnew,9,0,9,0,-1,3,null,4,-1,Correct Rejection,0.5007672999054193,False,True,2,0,2,stimulus2AFCnew_2IFCnew_2020_Mar_26_1838_19,stimulus2AFCnew_2IFCnew_2020_Mar_26_1838_20,False,2,2AFCnew,2020_Mar_26_1838,2IFCnew,
2IFCnew,10,0,10,0,-1,3,null,4,-1,Correct Rejection,0.5679959000553936,False,True,2,0,2,stimulus2AFCnew_2IFCnew_2020_Mar_26_1838_21,stimulus2AFCnew_2IFCnew_2020_Mar_26_1838_22,False,2,2AFCnew,2020_Mar_26_1838,2IFCnew,
2IFCnew,11,0,11,0,0.43528600002173334,5,Yes,4,-1,False Alarm,0.4008457000600174,False,True,1,1,2,stimulus2AFCnew_2IFCnew_2020_Mar_26_1838_23,stimulus2AFCnew_2IFCnew_2020_Mar_26_1838_24,False,2,2AFCnew,2020_Mar_26_1838,2IFCnew,
2IFCnew,12,0,12,0,-1,4,null,4,-1,Miss,0.4170012000249699,True,False,2,0,1,stimulus2AFCnew_2IFCnew_2020_Mar_26_1838_25,stimulus2AFCnew_2IFCnew_2020_Mar_26_1838_26,False,2,2AFCnew,2020_Mar_26_1838,2IFCnew,
2IFCnew,13,0,13,0,0.20088340004440397,5,Yes,4,-1,False Alarm,0.40148470003623515,False,True,1,1,2,stimulus2AFCnew_2IFCnew_2020_Mar_26_1838_27,stimulus2AFCnew_2IFCnew_2020_Mar_26_1838_28,False,2,2AFCnew,2020_Mar_26_1838,2IFCnew,
2IFCnew,14,0,14,0,0.30152949993498623,6,No,4,-1,Miss,0.5355974999256432,True,False,2,2,1,stimulus2AFCnew_2IFCnew_2020_Mar_26_1838_29,stimulus2AFCnew_2IFCnew_2020_Mar_26_1838_30,False,2,2AFCnew,2020_Mar_26_1838,2IFCnew,
2IFCnew,15,0,15,0,-1,1,null,4,-1,Hit,0.3843460000352934,True,False,1,0,1,stimulus2AFCnew_2IFCnew_2020_Mar_26_1838_31,stimulus2AFCnew_2IFCnew_2020_Mar_26_1838_32,False,2,2AFCnew,2020_Mar_26_1838,2IFCnew,
2IFCnew,16,0,16,0,-1,3,null,4,-1,Correct Rejection,0.4333246999885887,False,True,2,0,2,stimulus2AFCnew_2IFCnew_2020_Mar_26_1838_33,stimulus2AFCnew_2IFCnew_2020_Mar_26_1838_34,False,2,2AFCnew,2020_Mar_26_1838,2IFCnew,
2IFCnew,17,0,17,0,-1,3,null,4,-1,Correct Rejection,0.6506058999802917,False,True,2,0,2,stimulus2AFCnew_2IFCnew_2020_Mar_26_1838_35,stimulus2AFCnew_2IFCnew_2020_Mar_26_1838_36,False,2,2AFCnew,2020_Mar_26_1838,2IFCnew,
2IFCnew,18,0,18,0,-1,3,null,4,-1,Correct Rejection,0.601940399967134,False,True,2,0,2,stimulus2AFCnew_2IFCnew_2020_Mar_26_1838_37,stimulus2AFCnew_2IFCnew_2020_Mar_26_1838_38,False,2,2AFCnew,2020_Mar_26_1838,2IFCnew,
2IFCnew,19,0,19,0,-1,3,null,4,-1,Correct Rejection,0.4841707000741735,False,True,2,0,2,stimulus2AFCnew_2IFCnew_2020_Mar_26_1838_39,stimulus2AFCnew_2IFCnew_2020_Mar_26_1838_40,False,2,2AFCnew,2020_Mar_26_1838,2IFCnew,
2IFCnew,20,0,20,0,-1,2,null,4,-1,False Alarm,0.517018900020048,False,True,1,0,2,stimulus2AFCnew_2IFCnew_2020_Mar_26_1838_41,stimulus2AFCnew_2IFCnew_2020_Mar_26_1838_42,False,2,2AFCnew,2020_Mar_26_1838,2IFCnew,
2IFCnew,21,0,21,0,-1,3,null,4,-1,Correct Rejection,0.20046709990128875,False,True,2,0,2,stimulus2AFCnew_2IFCnew_2020_Mar_26_1838_43,stimulus2AFCnew_2IFCnew_2020_Mar_26_1838_44,False,2,2AFCnew,2020_Mar_26_1838,2IFCnew,
2IFCnew,22,0,22,0,-1,1,null,4,-1,Hit,0.5013940999051556,True,False,1,0,1,stimulus2AFCnew_2IFCnew_2020_Mar_26_1838_45,stimulus2AFCnew_2IFCnew_2020_Mar_26_1838_46,False,2,2AFCnew,2020_Mar_26_1838,2IFCnew,
2IFCnew,23,0,23,0,-1,3,null,4,-1,Correct Rejection,0.36757380003109574,False,True,2,0,2,stimulus2AFCnew_2IFCnew_2020_Mar_26_1838_47,stimulus2AFCnew_2IFCnew_2020_Mar_26_1838_48,False,2,2AFCnew,2020_Mar_26_1838,2IFCnew,
2IFCnew,24,0,24,0,-1,3,null,4,-1,Correct Rejection,0.4169636000879109,False,True,2,0,2,stimulus2AFCnew_2IFCnew_2020_Mar_26_1838_49,stimulus2AFCnew_2IFCnew_2020_Mar_26_1838_50,False,2,2AFCnew,2020_Mar_26_1838,2IFCnew,
2IFCnew,25,0,25,0,-1,2,null,4,-1,False Alarm,0.4179095000727102,False,True,1,0,2,stimulus2AFCnew_2IFCnew_2020_Mar_26_1838_51,stimulus2AFCnew_2IFCnew_2020_Mar_26_1838_52,False,2,2AFCnew,2020_Mar_26_1838,2IFCnew,
2IFCnew,26,0,26,0,0.28392479999456555,8,No,4,-1,Correct Rejection,0.21537370001897216,False,True,2,2,2,stimulus2AFCnew_2IFCnew_2020_Mar_26_1838_53,stimulus2AFCnew_2IFCnew_2020_Mar_26_1838_54,False,2,2AFCnew,2020_Mar_26_1838,2IFCnew,
2IFCnew,27,0,27,0,-1,2,null,4,-1,False Alarm,0.4024074000772089,False,True,1,0,2,stimulus2AFCnew_2IFCnew_2020_Mar_26_1838_55,stimulus2AFCnew_2IFCnew_2020_Mar_26_1838_56,False,2,2AFCnew,2020_Mar_26_1838,2IFCnew,
2IFCnew,28,0,28,0,-1,3,null,4,-1,Correct Rejection,0.38402719993609935,False,True,2,0,2,stimulus2AFCnew_2IFCnew_2020_Mar_26_1838_57,stimulus2AFCnew_2IFCnew_2020_Mar_26_1838_58,False,2,2AFCnew,2020_Mar_26_1838,2IFCnew,
2IFCnew,29,0,29,0,0.7152654000092298,2,Yes,4,-1,Correct Rejection,0.5003791000926867,False,True,2,1,2,stimulus2AFCnew_2IFCnew_2020_Mar_26_1838_59,stimulus2AFCnew_2IFCnew_2020_Mar_26_1838_60,False,2,2AFCnew,2020_Mar_26_1838,2IFCnew,
2IFCnew,30,0,30,0,0.23460119997616857,6,No,4,-1,Miss,0.5840750000206754,True,False,2,2,1,stimulus2AFCnew_2IFCnew_2020_Mar_26_1838_61,stimulus2AFCnew_2IFCnew_2020_Mar_26_1838_62,False,2,2AFCnew,2020_Mar_26_1838,2IFCnew,
2IFCnew,31,0,31,0,-1,0,null,4,-1,No Answer,-1,False,True,0,0,2,stimulus2AFCnew_2IFCnew_2020_Mar_26_1838_63,stimulus2AFCnew_2IFCnew_2020_Mar_26_1838_64,False,2,2AFCnew,2020_Mar_26_1838,2IFCnew,
2IFCnew,32,0,32,0,0.5694541999837384,6,No,4,-1,Miss,0.2171480000251904,True,False,2,2,1,stimulus2AFCnew_2IFCnew_2020_Mar_26_1838_65,stimulus2AFCnew_2IFCnew_2020_Mar_26_1838_66,False,2,2AFCnew,2020_Mar_26_1838,2IFCnew,
2IFCnew,33,0,33,0,-1,0,null,4,-1,No Answer,-1,True,False,0,0,1,stimulus2AFCnew_2IFCnew_2020_Mar_26_1838_67,stimulus2AFCnew_2IFCnew_2020_Mar_26_1838_68,False,2,2AFCnew,2020_Mar_26_1838,2IFCnew,
2IFCnew,34,0,34,0,0.6173814000794664,1,No,4,-1,Hit,0.500327100045979,True,False,1,2,1,stimulus2AFCnew_2IFCnew_2020_Mar_26_1838_69,stimulus2AFCnew_2IFCnew_2020_Mar_26_1838_70,False,2,2AFCnew,2020_Mar_26_1838,2IFCnew,
2IFCnew,35,0,35,0,0.5178876999998465,5,Yes,4,-1,False Alarm,0.5848897999385372,False,True,1,1,2,stimulus2AFCnew_2IFCnew_2020_Mar_26_1838_71,stimulus2AFCnew_2IFCnew_2020_Mar_26_1838_72,False,2,2AFCnew,2020_Mar_26_1838,2IFCnew,
2IFCnew,36,0,36,0,0.617695500026457,2,Yes,4,-1,Correct Rejection,0.38415479997638613,False,True,2,1,2,stimulus2AFCnew_2IFCnew_2020_Mar_26_1838_73,stimulus2AFCnew_2IFCnew_2020_Mar_26_1838_74,False,2,2AFCnew,2020_Mar_26_1838,2IFCnew,
2IFCnew,37,0,37,0,-1,3,null,4,-1,Correct Rejection,0.4673778999131173,False,True,2,0,2,stimulus2AFCnew_2IFCnew_2020_Mar_26_1838_75,stimulus2AFCnew_2IFCnew_2020_Mar_26_1838_76,False,2,2AFCnew,2020_Mar_26_1838,2IFCnew,
2IFCnew,38,0,38,0,-1,1,null,4,-1,Hit,0.4356735000619665,True,False,1,0,1,stimulus2AFCnew_2IFCnew_2020_Mar_26_1838_77,stimulus2AFCnew_2IFCnew_2020_Mar_26_1838_78,False,2,2AFCnew,2020_Mar_26_1838,2IFCnew,
2IFCnew,39,0,39,0,-1,3,null,4,-1,Correct Rejection,0.5022099999478087,False,True,2,0,2,stimulus2AFCnew_2IFCnew_2020_Mar_26_1838_79,stimulus2AFCnew_2IFCnew_2020_Mar_26_1838_80,False,2,2AFCnew,2020_Mar_26_1838,2IFCnew,
2IFCnew,40,0,40,0,0.3665546999545768,5,Yes,4,-1,False Alarm,0.35403280006721616,False,True,1,1,2,stimulus2AFCnew_2IFCnew_2020_Mar_26_1838_81,stimulus2AFCnew_2IFCnew_2020_Mar_26_1838_82,False,2,2AFCnew,2020_Mar_26_1838,2IFCnew,
2IFCnew,41,0,41,0,-1,3,null,4,-1,Correct Rejection,0.566528599942103,False,True,2,0,2,stimulus2AFCnew_2IFCnew_2020_Mar_26_1838_83,stimulus2AFCnew_2IFCnew_2020_Mar_26_1838_84,False,2,2AFCnew,2020_Mar_26_1838,2IFCnew,
2IFCnew,42,0,42,0,-1,4,null,4,-1,Miss,0.41539979993831366,True,False,2,0,1,stimulus2AFCnew_2IFCnew_2020_Mar_26_1838_85,stimulus2AFCnew_2IFCnew_2020_Mar_26_1838_86,False,2,2AFCnew,2020_Mar_26_1838,2IFCnew,
2IFCnew,43,0,43,0,-1,3,null,4,-1,Correct Rejection,0.30039160000160336,False,True,2,0,2,stimulus2AFCnew_2IFCnew_2020_Mar_26_1838_87,stimulus2AFCnew_2IFCnew_2020_Mar_26_1838_88,False,2,2AFCnew,2020_Mar_26_1838,2IFCnew,
2IFCnew,44,0,44,0,0.38382619991898537,7,Yes,4,-1,Hit,0.5176405999809504,True,False,1,1,1,stimulus2AFCnew_2IFCnew_2020_Mar_26_1838_89,stimulus2AFCnew_2IFCnew_2020_Mar_26_1838_90,False,2,2AFCnew,2020_Mar_26_1838,2IFCnew,
2IFCnew,0,0,0,0,-1,0,null,10,-1,No Answer,-1,False,True,0,0,2,stimulus2AFCnew_2IFCnew_2020_Mar_26_1838_91,stimulus2AFCnew_2IFCnew_2020_Mar_26_1838_92,False,2,2AFCnew,2020_Mar_26_1838,2IFCnew,
2IFCnew,1,0,1,0,0.43421989993657917,1,No,10,-1,Hit,0.7682014000602067,True,False,1,2,1,stimulus2AFCnew_2IFCnew_2020_Mar_26_1838_93,stimulus2AFCnew_2IFCnew_2020_Mar_26_1838_94,False,2,2AFCnew,2020_Mar_26_1838,2IFCnew,
2IFCnew,2,0,2,0,-1,1,null,10,-1,Hit,0.41571520001161844,True,False,1,0,1,stimulus2AFCnew_2IFCnew_2020_Mar_26_1838_95,stimulus2AFCnew_2IFCnew_2020_Mar_26_1838_96,False,2,2AFCnew,2020_Mar_26_1838,2IFCnew,
2IFCnew,3,0,3,0,-1,1,null,10,-1,Hit,0.350875600008294,True,False,1,0,1,stimulus2AFCnew_2IFCnew_2020_Mar_26_1838_97,stimulus2AFCnew_2IFCnew_2020_Mar_26_1838_98,False,2,2AFCnew,2020_Mar_26_1838,2IFCnew,
2IFCnew,4,0,4,0,0.8010928999865428,2,Yes,10,-1,Correct Rejection,0.46503439999651164,False,True,2,1,2,stimulus2AFCnew_2IFCnew_2020_Mar_26_1838_99,stimulus2AFCnew_2IFCnew_2020_Mar_26_1838_100,False,2,2AFCnew,2020_Mar_26_1838,2IFCnew,
2IFCnew,5,0,5,0,-1,3,null,10,-1,Correct Rejection,0.5675707999616861,False,True,2,0,2,stimulus2AFCnew_2IFCnew_2020_Mar_26_1838_101,stimulus2AFCnew_2IFCnew_2020_Mar_26_1838_102,False,2,2AFCnew,2020_Mar_26_1838,2IFCnew,
2IFCnew,6,0,6,0,-1,1,null,10,-1,Hit,0.39844959997572005,True,False,1,0,1,stimulus2AFCnew_2IFCnew_2020_Mar_26_1838_103,stimulus2AFCnew_2IFCnew_2020_Mar_26_1838_104,False,2,2AFCnew,2020_Mar_26_1838,2IFCnew,
2IFCnew,7,0,7,0,-1,1,null,10,-1,Hit,0.3863834999501705,True,False,1,0,1,stimulus2AFCnew_2IFCnew_2020_Mar_26_1838_105,stimulus2AFCnew_2IFCnew_2020_Mar_26_1838_106,False,2,2AFCnew,2020_Mar_26_1838,2IFCnew,
2IFCnew,8,0,8,0,-1,3,null,10,-1,Correct Rejection,0.8008414000505581,False,True,2,0,2,stimulus2AFCnew_2IFCnew_2020_Mar_26_1838_107,stimulus2AFCnew_2IFCnew_2020_Mar_26_1838_108,False,2,2AFCnew,2020_Mar_26_1838,2IFCnew,
2IFCnew,9,0,9,0,-1,1,null,10,-1,Hit,0.40044880006462336,True,False,1,0,1,stimulus2AFCnew_2IFCnew_2020_Mar_26_1838_109,stimulus2AFCnew_2IFCnew_2020_Mar_26_1838_110,False,2,2AFCnew,2020_Mar_26_1838,2IFCnew,
2IFCnew,10,0,10,0,-1,1,null,10,-1,Hit,0.649150799959898,True,False,1,0,1,stimulus2AFCnew_2IFCnew_2020_Mar_26_1838_111,stimulus2AFCnew_2IFCnew_2020_Mar_26_1838_112,False,2,2AFCnew,2020_Mar_26_1838,2IFCnew,
2IFCnew,11,0,11,0,-1,4,null,10,-1,Miss,0.5508071000222117,True,False,2,0,1,stimulus2AFCnew_2IFCnew_2020_Mar_26_1838_113,stimulus2AFCnew_2IFCnew_2020_Mar_26_1838_114,False,2,2AFCnew,2020_Mar_26_1838,2IFCnew,
2IFCnew,12,0,12,0,0.21722880005836487,5,Yes,10,-1,False Alarm,0.4837212000275031,False,True,1,1,2,stimulus2AFCnew_2IFCnew_2020_Mar_26_1838_115,stimulus2AFCnew_2IFCnew_2020_Mar_26_1838_116,False,2,2AFCnew,2020_Mar_26_1838,2IFCnew,
2IFCnew,13,0,13,0,-1,1,null,10,-1,Hit,0.4337446999270469,True,False,1,0,1,stimulus2AFCnew_2IFCnew_2020_Mar_26_1838_117,stimulus2AFCnew_2IFCnew_2020_Mar_26_1838_118,False,2,2AFCnew,2020_Mar_26_1838,2IFCnew,
2IFCnew,14,0,14,0,-1,3,null,10,-1,Correct Rejection,0.4676257000537589,False,True,2,0,2,stimulus2AFCnew_2IFCnew_2020_Mar_26_1838_119,stimulus2AFCnew_2IFCnew_2020_Mar_26_1838_120,False,2,2AFCnew,2020_Mar_26_1838,2IFCnew,
2IFCnew,15,0,15,0,-1,1,null,10,-1,Hit,0.4300806000828743,True,False,1,0,1,stimulus2AFCnew_2IFCnew_2020_Mar_26_1838_121,stimulus2AFCnew_2IFCnew_2020_Mar_26_1838_122,False,2,2AFCnew,2020_Mar_26_1838,2IFCnew,
2IFCnew,16,0,16,0,-1,1,null,10,-1,Hit,0.4170384999597445,True,False,1,0,1,stimulus2AFCnew_2IFCnew_2020_Mar_26_1838_123,stimulus2AFCnew_2IFCnew_2020_Mar_26_1838_124,False,2,2AFCnew,2020_Mar_26_1838,2IFCnew,
2IFCnew,17,0,17,0,-1,1,null,10,-1,Hit,0.4508383000502363,True,False,1,0,1,stimulus2AFCnew_2IFCnew_2020_Mar_26_1838_125,stimulus2AFCnew_2IFCnew_2020_Mar_26_1838_126,False,2,2AFCnew,2020_Mar_26_1838,2IFCnew,
2IFCnew,18,0,18,0,-1,3,null,10,-1,Correct Rejection,0.5339912999188527,False,True,2,0,2,stimulus2AFCnew_2IFCnew_2020_Mar_26_1838_127,stimulus2AFCnew_2IFCnew_2020_Mar_26_1838_128,False,2,2AFCnew,2020_Mar_26_1838,2IFCnew,
2IFCnew,19,0,19,0,-1,3,null,10,-1,Correct Rejection,0.5648518999805674,False,True,2,0,2,stimulus2AFCnew_2IFCnew_2020_Mar_26_1838_129,stimulus2AFCnew_2IFCnew_2020_Mar_26_1838_130,False,2,2AFCnew,2020_Mar_26_1838,2IFCnew,
2IFCnew,20,0,20,0,-1,1,null,10,-1,Hit,0.4007987999357283,True,False,1,0,1,stimulus2AFCnew_2IFCnew_2020_Mar_26_1838_131,stimulus2AFCnew_2IFCnew_2020_Mar_26_1838_132,False,2,2AFCnew,2020_Mar_26_1838,2IFCnew,
2IFCnew,21,0,21,0,-1,1,null,10,-1,Hit,0.43394949997309595,True,False,1,0,1,stimulus2AFCnew_2IFCnew_2020_Mar_26_1838_133,stimulus2AFCnew_2IFCnew_2020_Mar_26_1838_134,False,2,2AFCnew,2020_Mar_26_1838,2IFCnew,
2IFCnew,22,0,22,0,0.31870549998711795,6,No,10,-1,Miss,0.6342736000660807,True,False,2,2,1,stimulus2AFCnew_2IFCnew_2020_Mar_26_1838_135,stimulus2AFCnew_2IFCnew_2020_Mar_26_1838_136,False,2,2AFCnew,2020_Mar_26_1838,2IFCnew,
2IFCnew,23,0,23,0,0.8004982999991626,1,No,10,-1,Hit,0.41849890002049506,True,False,1,2,1,stimulus2AFCnew_2IFCnew_2020_Mar_26_1838_137,stimulus2AFCnew_2IFCnew_2020_Mar_26_1838_138,False,2,2AFCnew,2020_Mar_26_1838,2IFCnew,
2IFCnew,24,0,24,0,-1,3,null,10,-1,Correct Rejection,0.5340285999700427,False,True,2,0,2,stimulus2AFCnew_2IFCnew_2020_Mar_26_1838_139,stimulus2AFCnew_2IFCnew_2020_Mar_26_1838_140,False,2,2AFCnew,2020_Mar_26_1838,2IFCnew,
2IFCnew,25,0,25,0,-1,1,null,10,-1,Hit,0.3839187000412494,True,False,1,0,1,stimulus2AFCnew_2IFCnew_2020_Mar_26_1838_141,stimulus2AFCnew_2IFCnew_2020_Mar_26_1838_142,False,2,2AFCnew,2020_Mar_26_1838,2IFCnew,
2IFCnew,26,0,26,0,-1,3,null,10,-1,Correct Rejection,0.4504644999979064,False,True,2,0,2,stimulus2AFCnew_2IFCnew_2020_Mar_26_1838_143,stimulus2AFCnew_2IFCnew_2020_Mar_26_1838_144,False,2,2AFCnew,2020_Mar_26_1838,2IFCnew,
2IFCnew,27,0,27,0,-1,3,null,10,-1,Correct Rejection,0.4011079000774771,False,True,2,0,2,stimulus2AFCnew_2IFCnew_2020_Mar_26_1838_145,stimulus2AFCnew_2IFCnew_2020_Mar_26_1838_146,False,2,2AFCnew,2020_Mar_26_1838,2IFCnew,
2IFCnew,28,0,28,0,0.20047929999418557,5,Yes,10,-1,False Alarm,0.38483800005633384,False,True,1,1,2,stimulus2AFCnew_2IFCnew_2020_Mar_26_1838_147,stimulus2AFCnew_2IFCnew_2020_Mar_26_1838_148,False,2,2AFCnew,2020_Mar_26_1838,2IFCnew,
2IFCnew,29,0,29,0,-1,1,null,10,-1,Hit,0.4995266000041738,True,False,1,0,1,stimulus2AFCnew_2IFCnew_2020_Mar_26_1838_149,stimulus2AFCnew_2IFCnew_2020_Mar_26_1838_150,False,2,2AFCnew,2020_Mar_26_1838,2IFCnew,
2IFCnew,30,0,30,0,-1,1,null,10,-1,Hit,0.4640984999714419,True,False,1,0,1,stimulus2AFCnew_2IFCnew_2020_Mar_26_1838_151,stimulus2AFCnew_2IFCnew_2020_Mar_26_1838_152,False,2,2AFCnew,2020_Mar_26_1838,2IFCnew,
2IFCnew,31,0,31,0,0.7346075000241399,2,Yes,10,-1,Correct Rejection,0.45196219999343157,False,True,2,1,2,stimulus2AFCnew_2IFCnew_2020_Mar_26_1838_153,stimulus2AFCnew_2IFCnew_2020_Mar_26_1838_154,False,2,2AFCnew,2020_Mar_26_1838,2IFCnew,
2IFCnew,32,0,32,0,-1,3,null,10,-1,Correct Rejection,0.43444280000403523,False,True,2,0,2,stimulus2AFCnew_2IFCnew_2020_Mar_26_1838_155,stimulus2AFCnew_2IFCnew_2020_Mar_26_1838_156,False,2,2AFCnew,2020_Mar_26_1838,2IFCnew,
2IFCnew,33,0,33,0,-1,3,null,10,-1,Correct Rejection,0.4001494999974966,False,True,2,0,2,stimulus2AFCnew_2IFCnew_2020_Mar_26_1838_157,stimulus2AFCnew_2IFCnew_2020_Mar_26_1838_158,False,2,2AFCnew,2020_Mar_26_1838,2IFCnew,
2IFCnew,34,0,34,0,-1,1,null,10,-1,Hit,0.53446959995199,True,False,1,0,1,stimulus2AFCnew_2IFCnew_2020_Mar_26_1838_159,stimulus2AFCnew_2IFCnew_2020_Mar_26_1838_160,False,2,2AFCnew,2020_Mar_26_1838,2IFCnew,
2IFCnew,35,0,35,0,-1,1,null,10,-1,Hit,0.4660797000396997,True,False,1,0,1,stimulus2AFCnew_2IFCnew_2020_Mar_26_1838_161,stimulus2AFCnew_2IFCnew_2020_Mar_26_1838_162,False,2,2AFCnew,2020_Mar_26_1838,2IFCnew,
2IFCnew,36,0,36,0,-1,1,null,10,-1,Hit,0.534567299997434,True,False,1,0,1,stimulus2AFCnew_2IFCnew_2020_Mar_26_1838_163,stimulus2AFCnew_2IFCnew_2020_Mar_26_1838_164,False,2,2AFCnew,2020_Mar_26_1838,2IFCnew,
2IFCnew,37,0,37,0,0.4508648000191897,6,No,10,-1,Miss,0.3503489000722766,True,False,2,2,1,stimulus2AFCnew_2IFCnew_2020_Mar_26_1838_165,stimulus2AFCnew_2IFCnew_2020_Mar_26_1838_166,False,2,2AFCnew,2020_Mar_26_1838,2IFCnew,
2IFCnew,38,0,38,0,-1,1,null,10,-1,Hit,0.36724389996379614,True,False,1,0,1,stimulus2AFCnew_2IFCnew_2020_Mar_26_1838_167,stimulus2AFCnew_2IFCnew_2020_Mar_26_1838_168,False,2,2AFCnew,2020_Mar_26_1838,2IFCnew,
2IFCnew,39,0,39,0,-1,1,null,10,-1,Hit,0.5492835000623018,True,False,1,0,1,stimulus2AFCnew_2IFCnew_2020_Mar_26_1838_169,stimulus2AFCnew_2IFCnew_2020_Mar_26_1838_170,False,2,2AFCnew,2020_Mar_26_1838,2IFCnew,
2IFCnew,40,0,40,0,-1,3,null,10,-1,Correct Rejection,0.5673672000411898,False,True,2,0,2,stimulus2AFCnew_2IFCnew_2020_Mar_26_1838_171,stimulus2AFCnew_2IFCnew_2020_Mar_26_1838_172,False,2,2AFCnew,2020_Mar_26_1838,2IFCnew,
2IFCnew,41,0,41,0,-1,1,null,10,-1,Hit,0.30144069995731115,True,False,1,0,1,stimulus2AFCnew_2IFCnew_2020_Mar_26_1838_173,stimulus2AFCnew_2IFCnew_2020_Mar_26_1838_174,False,2,2AFCnew,2020_Mar_26_1838,2IFCnew,
2IFCnew,42,0,42,0,-1,3,null,10,-1,Correct Rejection,0.5009711999446154,False,True,2,0,2,stimulus2AFCnew_2IFCnew_2020_Mar_26_1838_175,stimulus2AFCnew_2IFCnew_2020_Mar_26_1838_176,False,2,2AFCnew,2020_Mar_26_1838,2IFCnew,
2IFCnew,43,0,43,0,-1,1,null,10,-1,Hit,0.35110929992515594,True,False,1,0,1,stimulus2AFCnew_2IFCnew_2020_Mar_26_1838_177,stimulus2AFCnew_2IFCnew_2020_Mar_26_1838_178,False,2,2AFCnew,2020_Mar_26_1838,2IFCnew,
2IFCnew,44,0,44,0,-1,1,null,10,-1,Hit,0.4194312999024987,True,False,1,0,1,stimulus2AFCnew_2IFCnew_2020_Mar_26_1838_179,stimulus2AFCnew_2IFCnew_2020_Mar_26_1838_180,False,2,2AFCnew,2020_Mar_26_1838,2IFCnew,
2IFCnew,0,0,0,0,-1,3,null,5,-1,Correct Rejection,0.467318799928762,False,True,2,0,2,stimulus2AFCnew_2IFCnew_2020_Mar_26_1838_181,stimulus2AFCnew_2IFCnew_2020_Mar_26_1838_182,False,2,2AFCnew,2020_Mar_26_1838,2IFCnew,
2IFCnew,1,0,1,0,-1,1,null,5,-1,Hit,0.665230399928987,True,False,1,0,1,stimulus2AFCnew_2IFCnew_2020_Mar_26_1838_183,stimulus2AFCnew_2IFCnew_2020_Mar_26_1838_184,False,2,2AFCnew,2020_Mar_26_1838,2IFCnew,
2IFCnew,2,0,2,0,-1,3,null,5,-1,Correct Rejection,0.43408329994417727,False,True,2,0,2,stimulus2AFCnew_2IFCnew_2020_Mar_26_1838_185,stimulus2AFCnew_2IFCnew_2020_Mar_26_1838_186,False,2,2AFCnew,2020_Mar_26_1838,2IFCnew,
2IFCnew,3,0,3,0,0.2338222999824211,5,Yes,5,-1,False Alarm,0.43416780000552535,False,True,1,1,2,stimulus2AFCnew_2IFCnew_2020_Mar_26_1838_187,stimulus2AFCnew_2IFCnew_2020_Mar_26_1838_188,False,2,2AFCnew,2020_Mar_26_1838,2IFCnew,
2IFCnew,4,0,4,0,-1,3,null,5,-1,Correct Rejection,0.5003184999804944,False,True,2,0,2,stimulus2AFCnew_2IFCnew_2020_Mar_26_1838_189,stimulus2AFCnew_2IFCnew_2020_Mar_26_1838_190,False,2,2AFCnew,2020_Mar_26_1838,2IFCnew,
2IFCnew,5,0,5,0,-1,1,null,5,-1,Hit,0.4841024000197649,True,False,1,0,1,stimulus2AFCnew_2IFCnew_2020_Mar_26_1838_191,stimulus2AFCnew_2IFCnew_2020_Mar_26_1838_192,False,2,2AFCnew,2020_Mar_26_1838,2IFCnew,
2IFCnew,6,0,6,0,-1,1,null,5,-1,Hit,0.4003861000528559,True,False,1,0,1,stimulus2AFCnew_2IFCnew_2020_Mar_26_1838_193,stimulus2AFCnew_2IFCnew_2020_Mar_26_1838_194,False,2,2AFCnew,2020_Mar_26_1838,2IFCnew,
2IFCnew,7,0,7,0,-1,1,null,5,-1,Hit,0.35191019997000694,True,False,1,0,1,stimulus2AFCnew_2IFCnew_2020_Mar_26_1838_195,stimulus2AFCnew_2IFCnew_2020_Mar_26_1838_196,False,2,2AFCnew,2020_Mar_26_1838,2IFCnew,
2IFCnew,8,0,8,0,0.48428039997816086,5,Yes,5,-1,False Alarm,0.4321637999964878,False,True,1,1,2,stimulus2AFCnew_2IFCnew_2020_Mar_26_1838_197,stimulus2AFCnew_2IFCnew_2020_Mar_26_1838_198,False,2,2AFCnew,2020_Mar_26_1838,2IFCnew,
2IFCnew,9,0,9,0,-1,3,null,5,-1,Correct Rejection,0.6527159999823198,False,True,2,0,2,stimulus2AFCnew_2IFCnew_2020_Mar_26_1838_199,stimulus2AFCnew_2IFCnew_2020_Mar_26_1838_200,False,2,2AFCnew,2020_Mar_26_1838,2IFCnew,
2IFCnew,10,0,10,0,0.5671084000496194,6,No,5,-1,Miss,0.5666183999273926,True,False,2,2,1,stimulus2AFCnew_2IFCnew_2020_Mar_26_1838_201,stimulus2AFCnew_2IFCnew_2020_Mar_26_1838_202,False,2,2AFCnew,2020_Mar_26_1838,2IFCnew,
2IFCnew,11,0,11,0,0.5833043999737129,1,No,5,-1,Hit,0.8379398001125082,True,False,1,2,1,stimulus2AFCnew_2IFCnew_2020_Mar_26_1838_203,stimulus2AFCnew_2IFCnew_2020_Mar_26_1838_204,False,2,2AFCnew,2020_Mar_26_1838,2IFCnew,
2IFCnew,12,0,12,0,-1,3,null,5,-1,Correct Rejection,0.5155005999840796,False,True,2,0,2,stimulus2AFCnew_2IFCnew_2020_Mar_26_1838_205,stimulus2AFCnew_2IFCnew_2020_Mar_26_1838_206,False,2,2AFCnew,2020_Mar_26_1838,2IFCnew,
2IFCnew,13,0,13,0,-1,3,null,5,-1,Correct Rejection,0.517337099998258,False,True,2,0,2,stimulus2AFCnew_2IFCnew_2020_Mar_26_1838_207,stimulus2AFCnew_2IFCnew_2020_Mar_26_1838_208,False,2,2AFCnew,2020_Mar_26_1838,2IFCnew,
2IFCnew,14,0,14,0,-1,3,null,5,-1,Correct Rejection,0.43410010007210076,False,True,2,0,2,stimulus2AFCnew_2IFCnew_2020_Mar_26_1838_209,stimulus2AFCnew_2IFCnew_2020_Mar_26_1838_210,False,2,2AFCnew,2020_Mar_26_1838,2IFCnew,
2IFCnew,15,0,15,0,-1,3,null,5,-1,Correct Rejection,0.3839123999932781,False,True,2,0,2,stimulus2AFCnew_2IFCnew_2020_Mar_26_1838_211,stimulus2AFCnew_2IFCnew_2020_Mar_26_1838_212,False,2,2AFCnew,2020_Mar_26_1838,2IFCnew,
2IFCnew,16,0,16,0,0.38350720005109906,4,Yes,5,-1,Miss,0.2505208000075072,True,False,2,1,1,stimulus2AFCnew_2IFCnew_2020_Mar_26_1838_213,stimulus2AFCnew_2IFCnew_2020_Mar_26_1838_214,False,2,2AFCnew,2020_Mar_26_1838,2IFCnew,
2IFCnew,17,0,17,0,-1,3,null,5,-1,Correct Rejection,0.4343256000429392,False,True,2,0,2,stimulus2AFCnew_2IFCnew_2020_Mar_26_1838_215,stimulus2AFCnew_2IFCnew_2020_Mar_26_1838_216,False,2,2AFCnew,2020_Mar_26_1838,2IFCnew,
2IFCnew,18,0,18,0,0.5988561999984086,6,No,5,-1,Miss,0.5685419000219554,True,False,2,2,1,stimulus2AFCnew_2IFCnew_2020_Mar_26_1838_217,stimulus2AFCnew_2IFCnew_2020_Mar_26_1838_218,False,2,2AFCnew,2020_Mar_26_1838,2IFCnew,
2IFCnew,19,0,19,0,-1,1,null,5,-1,Hit,0.4679919999325648,True,False,1,0,1,stimulus2AFCnew_2IFCnew_2020_Mar_26_1838_219,stimulus2AFCnew_2IFCnew_2020_Mar_26_1838_220,False,2,2AFCnew,2020_Mar_26_1838,2IFCnew,
2IFCnew,20,0,20,0,-1,3,null,5,-1,Correct Rejection,0.45094250002875924,False,True,2,0,2,stimulus2AFCnew_2IFCnew_2020_Mar_26_1838_221,stimulus2AFCnew_2IFCnew_2020_Mar_26_1838_222,False,2,2AFCnew,2020_Mar_26_1838,2IFCnew,
2IFCnew,21,0,21,0,-1,3,null,5,-1,Correct Rejection,0.3506163000129163,False,True,2,0,2,stimulus2AFCnew_2IFCnew_2020_Mar_26_1838_223,stimulus2AFCnew_2IFCnew_2020_Mar_26_1838_224,False,2,2AFCnew,2020_Mar_26_1838,2IFCnew,
2IFCnew,22,0,22,0,-1,3,null,5,-1,Correct Rejection,0.384673900087364,False,True,2,0,2,stimulus2AFCnew_2IFCnew_2020_Mar_26_1838_225,stimulus2AFCnew_2IFCnew_2020_Mar_26_1838_226,False,2,2AFCnew,2020_Mar_26_1838,2IFCnew,
2IFCnew,23,0,23,0,0.05065119999926537,6,No,5,-1,Miss,0.25083399994764477,True,False,2,2,1,stimulus2AFCnew_2IFCnew_2020_Mar_26_1838_227,stimulus2AFCnew_2IFCnew_2020_Mar_26_1838_228,False,2,2AFCnew,2020_Mar_26_1838,2IFCnew,
2IFCnew,24,0,24,0,-1,3,null,5,-1,Correct Rejection,0.8811303999973461,False,True,2,0,2,stimulus2AFCnew_2IFCnew_2020_Mar_26_1838_229,stimulus2AFCnew_2IFCnew_2020_Mar_26_1838_230,False,2,2AFCnew,2020_Mar_26_1838,2IFCnew,
2IFCnew,25,0,25,0,0.43377829995006323,6,No,5,-1,Miss,0.38512260001152754,True,False,2,2,1,stimulus2AFCnew_2IFCnew_2020_Mar_26_1838_231,stimulus2AFCnew_2IFCnew_2020_Mar_26_1838_232,False,2,2AFCnew,2020_Mar_26_1838,2IFCnew,
2IFCnew,26,0,26,0,-1,2,null,5,-1,False Alarm,0.56759420002345,False,True,1,0,2,stimulus2AFCnew_2IFCnew_2020_Mar_26_1838_233,stimulus2AFCnew_2IFCnew_2020_Mar_26_1838_234,False,2,2AFCnew,2020_Mar_26_1838,2IFCnew,
2IFCnew,27,0,27,0,-1,1,null,5,-1,Hit,0.48412489995826036,True,False,1,0,1,stimulus2AFCnew_2IFCnew_2020_Mar_26_1838_235,stimulus2AFCnew_2IFCnew_2020_Mar_26_1838_236,False,2,2AFCnew,2020_Mar_26_1838,2IFCnew,
2IFCnew,28,0,28,0,0.6867789999814704,6,No,5,-1,Miss,0.500873800017871,True,False,2,2,1,stimulus2AFCnew_2IFCnew_2020_Mar_26_1838_237,stimulus2AFCnew_2IFCnew_2020_Mar_26_1838_238,False,2,2AFCnew,2020_Mar_26_1838,2IFCnew,
2IFCnew,29,0,29,0,0.3839096000883728,2,Yes,5,-1,Correct Rejection,0.36540509993210435,False,True,2,1,2,stimulus2AFCnew_2IFCnew_2020_Mar_26_1838_239,stimulus2AFCnew_2IFCnew_2020_Mar_26_1838_240,False,2,2AFCnew,2020_Mar_26_1838,2IFCnew,
2IFCnew,30,0,30,0,-1,3,null,5,-1,Correct Rejection,0.5175122000509873,False,True,2,0,2,stimulus2AFCnew_2IFCnew_2020_Mar_26_1838_241,stimulus2AFCnew_2IFCnew_2020_Mar_26_1838_242,False,2,2AFCnew,2020_Mar_26_1838,2IFCnew,
2IFCnew,31,0,31,0,-1,3,null,5,-1,Correct Rejection,0.35031670005992055,False,True,2,0,2,stimulus2AFCnew_2IFCnew_2020_Mar_26_1838_243,stimulus2AFCnew_2IFCnew_2020_Mar_26_1838_244,False,2,2AFCnew,2020_Mar_26_1838,2IFCnew,
2IFCnew,32,0,32,0,-1,2,null,5,-1,False Alarm,0.43463430006522685,False,True,1,0,2,stimulus2AFCnew_2IFCnew_2020_Mar_26_1838_245,stimulus2AFCnew_2IFCnew_2020_Mar_26_1838_246,False,2,2AFCnew,2020_Mar_26_1838,2IFCnew,
2IFCnew,33,0,33,0,-1,2,null,5,-1,False Alarm,0.43461070000194013,False,True,1,0,2,stimulus2AFCnew_2IFCnew_2020_Mar_26_1838_247,stimulus2AFCnew_2IFCnew_2020_Mar_26_1838_248,False,2,2AFCnew,2020_Mar_26_1838,2IFCnew,
2IFCnew,34,0,34,0,0.5339888000162318,6,No,5,-1,Miss,0.48464789998251945,True,False,2,2,1,stimulus2AFCnew_2IFCnew_2020_Mar_26_1838_249,stimulus2AFCnew_2IFCnew_2020_Mar_26_1838_250,False,2,2AFCnew,2020_Mar_26_1838,2IFCnew,
2IFCnew,35,0,35,0,-1,3,null,5,-1,Correct Rejection,0.4337256000144407,False,True,2,0,2,stimulus2AFCnew_2IFCnew_2020_Mar_26_1838_251,stimulus2AFCnew_2IFCnew_2020_Mar_26_1838_252,False,2,2AFCnew,2020_Mar_26_1838,2IFCnew,
2IFCnew,36,0,36,0,-1,3,null,5,-1,Correct Rejection,0.5483457000227645,False,True,2,0,2,stimulus2AFCnew_2IFCnew_2020_Mar_26_1838_253,stimulus2AFCnew_2IFCnew_2020_Mar_26_1838_254,False,2,2AFCnew,2020_Mar_26_1838,2IFCnew,
2IFCnew,37,0,37,0,-1,3,null,5,-1,Correct Rejection,0.5495843000244349,False,True,2,0,2,stimulus2AFCnew_2IFCnew_2020_Mar_26_1838_255,stimulus2AFCnew_2IFCnew_2020_Mar_26_1838_256,False,2,2AFCnew,2020_Mar_26_1838,2IFCnew,
2IFCnew,38,0,38,0,0.4508524000411853,8,No,5,-1,Correct Rejection,0.5508190001128241,False,True,2,2,2,stimulus2AFCnew_2IFCnew_2020_Mar_26_1838_257,stimulus2AFCnew_2IFCnew_2020_Mar_26_1838_258,False,2,2AFCnew,2020_Mar_26_1838,2IFCnew,
2IFCnew,39,0,39,0,0.36434029997326434,6,No,5,-1,Miss,0.37013160006608814,True,False,2,2,1,stimulus2AFCnew_2IFCnew_2020_Mar_26_1838_259,stimulus2AFCnew_2IFCnew_2020_Mar_26_1838_260,False,2,2AFCnew,2020_Mar_26_1838,2IFCnew,
2IFCnew,40,0,40,0,-1,1,null,5,-1,Hit,0.3507008000742644,True,False,1,0,1,stimulus2AFCnew_2IFCnew_2020_Mar_26_1838_261,stimulus2AFCnew_2IFCnew_2020_Mar_26_1838_262,False,2,2AFCnew,2020_Mar_26_1838,2IFCnew,
2IFCnew,41,0,41,0,-1,3,null,5,-1,Correct Rejection,0.567570999963209,False,True,2,0,2,stimulus2AFCnew_2IFCnew_2020_Mar_26_1838_263,stimulus2AFCnew_2IFCnew_2020_Mar_26_1838_264,False,2,2AFCnew,2020_Mar_26_1838,2IFCnew,
2IFCnew,42,0,42,0,0.5513421999057755,8,No,5,-1,Correct Rejection,0.4359707999974489,False,True,2,2,2,stimulus2AFCnew_2IFCnew_2020_Mar_26_1838_265,stimulus2AFCnew_2IFCnew_2020_Mar_26_1838_266,False,2,2AFCnew,2020_Mar_26_1838,2IFCnew,
2IFCnew,43,0,43,0,0.7016876999987289,6,No,5,-1,Miss,0.2681463999906555,True,False,2,2,1,stimulus2AFCnew_2IFCnew_2020_Mar_26_1838_267,stimulus2AFCnew_2IFCnew_2020_Mar_26_1838_268,False,2,2AFCnew,2020_Mar_26_1838,2IFCnew,
2IFCnew,44,0,44,0,-1,1,null,5,-1,Hit,0.5334108000388369,True,False,1,0,1,stimulus2AFCnew_2IFCnew_2020_Mar_26_1838_269,stimulus2AFCnew_2IFCnew_2020_Mar_26_1838_270,False,2,2AFCnew,2020_Mar_26_1838,2IFCnew,
2IFCnew,0,0,0,0,-1,4,null,8,-1,Miss,0.5172456000000238,True,False,2,0,1,stimulus2AFCnew_2IFCnew_2020_Mar_26_1838_271,stimulus2AFCnew_2IFCnew_2020_Mar_26_1838_272,False,2,2AFCnew,2020_Mar_26_1838,2IFCnew,
2IFCnew,1,0,1,0,0.6512919999659061,6,No,8,-1,Miss,0.600861300015822,True,False,2,2,1,stimulus2AFCnew_2IFCnew_2020_Mar_26_1838_273,stimulus2AFCnew_2IFCnew_2020_Mar_26_1838_274,False,2,2AFCnew,2020_Mar_26_1838,2IFCnew,
2IFCnew,2,0,2,0,0.5176153999054804,8,No,8,-1,Correct Rejection,0.4674264000495896,False,True,2,2,2,stimulus2AFCnew_2IFCnew_2020_Mar_26_1838_275,stimulus2AFCnew_2IFCnew_2020_Mar_26_1838_276,False,2,2AFCnew,2020_Mar_26_1838,2IFCnew,
2IFCnew,3,0,3,0,-1,1,null,8,-1,Hit,0.4830043000401929,True,False,1,0,1,stimulus2AFCnew_2IFCnew_2020_Mar_26_1838_277,stimulus2AFCnew_2IFCnew_2020_Mar_26_1838_278,False,2,2AFCnew,2020_Mar_26_1838,2IFCnew,
2IFCnew,4,0,4,0,-1,1,null,8,-1,Hit,0.4008737999247387,True,False,1,0,1,stimulus2AFCnew_2IFCnew_2020_Mar_26_1838_279,stimulus2AFCnew_2IFCnew_2020_Mar_26_1838_280,False,2,2AFCnew,2020_Mar_26_1838,2IFCnew,
2IFCnew,5,0,5,0,-1,1,null,8,-1,Hit,0.3664862000150606,True,False,1,0,1,stimulus2AFCnew_2IFCnew_2020_Mar_26_1838_281,stimulus2AFCnew_2IFCnew_2020_Mar_26_1838_282,False,2,2AFCnew,2020_Mar_26_1838,2IFCnew,
2IFCnew,6,0,6,0,-1,3,null,8,-1,Correct Rejection,0.4840388000011444,False,True,2,0,2,stimulus2AFCnew_2IFCnew_2020_Mar_26_1838_283,stimulus2AFCnew_2IFCnew_2020_Mar_26_1838_284,False,2,2AFCnew,2020_Mar_26_1838,2IFCnew,
2IFCnew,7,0,7,0,-1,3,null,8,-1,Correct Rejection,0.38166209997143596,False,True,2,0,2,stimulus2AFCnew_2IFCnew_2020_Mar_26_1838_285,stimulus2AFCnew_2IFCnew_2020_Mar_26_1838_286,False,2,2AFCnew,2020_Mar_26_1838,2IFCnew,
2IFCnew,8,0,8,0,-1,1,null,8,-1,Hit,0.6010224000783637,True,False,1,0,1,stimulus2AFCnew_2IFCnew_2020_Mar_26_1838_287,stimulus2AFCnew_2IFCnew_2020_Mar_26_1838_288,False,2,2AFCnew,2020_Mar_26_1838,2IFCnew,
2IFCnew,9,0,9,0,-1,1,null,8,-1,Hit,0.3816483999835327,True,False,1,0,1,stimulus2AFCnew_2IFCnew_2020_Mar_26_1838_289,stimulus2AFCnew_2IFCnew_2020_Mar_26_1838_290,False,2,2AFCnew,2020_Mar_26_1838,2IFCnew,
2IFCnew,10,0,10,0,-1,4,null,8,-1,Miss,0.5008172000525519,True,False,2,0,1,stimulus2AFCnew_2IFCnew_2020_Mar_26_1838_291,stimulus2AFCnew_2IFCnew_2020_Mar_26_1838_292,False,2,2AFCnew,2020_Mar_26_1838,2IFCnew,
2IFCnew,11,0,11,0,-1,1,null,8,-1,Hit,0.234039600007236,True,False,1,0,1,stimulus2AFCnew_2IFCnew_2020_Mar_26_1838_293,stimulus2AFCnew_2IFCnew_2020_Mar_26_1838_294,False,2,2AFCnew,2020_Mar_26_1838,2IFCnew,
2IFCnew,12,0,12,0,-1,2,null,8,-1,False Alarm,0.4174557999940589,False,True,1,0,2,stimulus2AFCnew_2IFCnew_2020_Mar_26_1838_295,stimulus2AFCnew_2IFCnew_2020_Mar_26_1838_296,False,2,2AFCnew,2020_Mar_26_1838,2IFCnew,
2IFCnew,13,0,13,0,0.35100090003106743,5,Yes,8,-1,False Alarm,0.38405909994617105,False,True,1,1,2,stimulus2AFCnew_2IFCnew_2020_Mar_26_1838_297,stimulus2AFCnew_2IFCnew_2020_Mar_26_1838_298,False,2,2AFCnew,2020_Mar_26_1838,2IFCnew,
2IFCnew,14,0,14,0,-1,3,null,8,-1,Correct Rejection,0.5010669999755919,False,True,2,0,2,stimulus2AFCnew_2IFCnew_2020_Mar_26_1838_299,stimulus2AFCnew_2IFCnew_2020_Mar_26_1838_300,False,2,2AFCnew,2020_Mar_26_1838,2IFCnew,
2IFCnew,15,0,15,0,-1,1,null,8,-1,Hit,0.3992843000451103,True,False,1,0,1,stimulus2AFCnew_2IFCnew_2020_Mar_26_1838_301,stimulus2AFCnew_2IFCnew_2020_Mar_26_1838_302,False,2,2AFCnew,2020_Mar_26_1838,2IFCnew,
2IFCnew,16,0,16,0,-1,3,null,8,-1,Correct Rejection,0.5327672000275925,False,True,2,0,2,stimulus2AFCnew_2IFCnew_2020_Mar_26_1838_303,stimulus2AFCnew_2IFCnew_2020_Mar_26_1838_304,False,2,2AFCnew,2020_Mar_26_1838,2IFCnew,
2IFCnew,17,0,17,0,-1,3,null,8,-1,Correct Rejection,0.4530984000302851,False,True,2,0,2,stimulus2AFCnew_2IFCnew_2020_Mar_26_1838_305,stimulus2AFCnew_2IFCnew_2020_Mar_26_1838_306,False,2,2AFCnew,2020_Mar_26_1838,2IFCnew,
2IFCnew,18,0,18,0,0.21730030002072453,6,No,8,-1,Miss,0.3848644000245258,True,False,2,2,1,stimulus2AFCnew_2IFCnew_2020_Mar_26_1838_307,stimulus2AFCnew_2IFCnew_2020_Mar_26_1838_308,False,2,2AFCnew,2020_Mar_26_1838,2IFCnew,
2IFCnew,19,0,19,0,-1,1,null,8,-1,Hit,0.3833698999369517,True,False,1,0,1,stimulus2AFCnew_2IFCnew_2020_Mar_26_1838_309,stimulus2AFCnew_2IFCnew_2020_Mar_26_1838_310,False,2,2AFCnew,2020_Mar_26_1838,2IFCnew,
2IFCnew,20,0,20,0,-1,3,null,8,-1,Correct Rejection,0.5155162999872118,False,True,2,0,2,stimulus2AFCnew_2IFCnew_2020_Mar_26_1838_311,stimulus2AFCnew_2IFCnew_2020_Mar_26_1838_312,False,2,2AFCnew,2020_Mar_26_1838,2IFCnew,
2IFCnew,21,0,21,0,-1,3,null,8,-1,Correct Rejection,0.5511231999844313,False,True,2,0,2,stimulus2AFCnew_2IFCnew_2020_Mar_26_1838_313,stimulus2AFCnew_2IFCnew_2020_Mar_26_1838_314,False,2,2AFCnew,2020_Mar_26_1838,2IFCnew,
2IFCnew,22,0,22,0,-1,3,null,8,-1,Correct Rejection,0.5671847999328747,False,True,2,0,2,stimulus2AFCnew_2IFCnew_2020_Mar_26_1838_315,stimulus2AFCnew_2IFCnew_2020_Mar_26_1838_316,False,2,2AFCnew,2020_Mar_26_1838,2IFCnew,
2IFCnew,23,0,23,0,-1,1,null,8,-1,Hit,0.4168060999363661,True,False,1,0,1,stimulus2AFCnew_2IFCnew_2020_Mar_26_1838_317,stimulus2AFCnew_2IFCnew_2020_Mar_26_1838_318,False,2,2AFCnew,2020_Mar_26_1838,2IFCnew,
2IFCnew,24,0,24,0,-1,3,null,8,-1,Correct Rejection,0.4653793000616133,False,True,2,0,2,stimulus2AFCnew_2IFCnew_2020_Mar_26_1838_319,stimulus2AFCnew_2IFCnew_2020_Mar_26_1838_320,False,2,2AFCnew,2020_Mar_26_1838,2IFCnew,
2IFCnew,25,0,25,0,-1,3,null,8,-1,Correct Rejection,0.40080250008031726,False,True,2,0,2,stimulus2AFCnew_2IFCnew_2020_Mar_26_1838_321,stimulus2AFCnew_2IFCnew_2020_Mar_26_1838_322,False,2,2AFCnew,2020_Mar_26_1838,2IFCnew,
2IFCnew,26,0,26,0,-1,3,null,8,-1,Correct Rejection,0.5011218999279663,False,True,2,0,2,stimulus2AFCnew_2IFCnew_2020_Mar_26_1838_323,stimulus2AFCnew_2IFCnew_2020_Mar_26_1838_324,False,2,2AFCnew,2020_Mar_26_1838,2IFCnew,
2IFCnew,27,0,27,0,-1,3,null,8,-1,Correct Rejection,0.36739630007650703,False,True,2,0,2,stimulus2AFCnew_2IFCnew_2020_Mar_26_1838_325,stimulus2AFCnew_2IFCnew_2020_Mar_26_1838_326,False,2,2AFCnew,2020_Mar_26_1838,2IFCnew,
2IFCnew,28,0,28,0,-1,1,null,8,-1,Hit,0.41634949995204806,True,False,1,0,1,stimulus2AFCnew_2IFCnew_2020_Mar_26_1838_327,stimulus2AFCnew_2IFCnew_2020_Mar_26_1838_328,False,2,2AFCnew,2020_Mar_26_1838,2IFCnew,
2IFCnew,29,0,29,0,-1,3,null,8,-1,Correct Rejection,0.5319651999743655,False,True,2,0,2,stimulus2AFCnew_2IFCnew_2020_Mar_26_1838_329,stimulus2AFCnew_2IFCnew_2020_Mar_26_1838_330,False,2,2AFCnew,2020_Mar_26_1838,2IFCnew,
2IFCnew,30,0,30,0,0.7173693999648094,3,No,8,-1,False Alarm,0.5180654999567196,False,True,1,2,2,stimulus2AFCnew_2IFCnew_2020_Mar_26_1838_331,stimulus2AFCnew_2IFCnew_2020_Mar_26_1838_332,False,2,2AFCnew,2020_Mar_26_1838,2IFCnew,
2IFCnew,31,0,31,0,0.3170579000143334,5,Yes,8,-1,False Alarm,0.48391409998293966,False,True,1,1,2,stimulus2AFCnew_2IFCnew_2020_Mar_26_1838_333,stimulus2AFCnew_2IFCnew_2020_Mar_26_1838_334,False,2,2AFCnew,2020_Mar_26_1838,2IFCnew,
2IFCnew,32,0,32,0,0.43515449995175004,2,Yes,8,-1,Correct Rejection,0.33547739998903126,False,True,2,1,2,stimulus2AFCnew_2IFCnew_2020_Mar_26_1838_335,stimulus2AFCnew_2IFCnew_2020_Mar_26_1838_336,False,2,2AFCnew,2020_Mar_26_1838,2IFCnew,
2IFCnew,33,0,33,0,-1,1,null,8,-1,Hit,0.7179158000508323,True,False,1,0,1,stimulus2AFCnew_2IFCnew_2020_Mar_26_1838_337,stimulus2AFCnew_2IFCnew_2020_Mar_26_1838_338,False,2,2AFCnew,2020_Mar_26_1838,2IFCnew,
2IFCnew,34,0,34,0,-1,3,null,8,-1,Correct Rejection,0.5173846000107005,False,True,2,0,2,stimulus2AFCnew_2IFCnew_2020_Mar_26_1838_339,stimulus2AFCnew_2IFCnew_2020_Mar_26_1838_340,False,2,2AFCnew,2020_Mar_26_1838,2IFCnew,
2IFCnew,35,0,35,0,-1,3,null,8,-1,Correct Rejection,0.5508170999819413,False,True,2,0,2,stimulus2AFCnew_2IFCnew_2020_Mar_26_1838_341,stimulus2AFCnew_2IFCnew_2020_Mar_26_1838_342,False,2,2AFCnew,2020_Mar_26_1838,2IFCnew,
2IFCnew,36,0,36,0,-1,1,null,8,-1,Hit,0.36876179999671876,True,False,1,0,1,stimulus2AFCnew_2IFCnew_2020_Mar_26_1838_343,stimulus2AFCnew_2IFCnew_2020_Mar_26_1838_344,False,2,2AFCnew,2020_Mar_26_1838,2IFCnew,
2IFCnew,37,0,37,0,-1,1,null,8,-1,Hit,0.450754199991934,True,False,1,0,1,stimulus2AFCnew_2IFCnew_2020_Mar_26_1838_345,stimulus2AFCnew_2IFCnew_2020_Mar_26_1838_346,False,2,2AFCnew,2020_Mar_26_1838,2IFCnew,
2IFCnew,38,0,38,0,-1,3,null,8,-1,Correct Rejection,0.4203711999580264,False,True,2,0,2,stimulus2AFCnew_2IFCnew_2020_Mar_26_1838_347,stimulus2AFCnew_2IFCnew_2020_Mar_26_1838_348,False,2,2AFCnew,2020_Mar_26_1838,2IFCnew,
2IFCnew,39,0,39,0,0.24990309996064752,5,Yes,8,-1,False Alarm,0.36617200006730855,False,True,1,1,2,stimulus2AFCnew_2IFCnew_2020_Mar_26_1838_349,stimulus2AFCnew_2IFCnew_2020_Mar_26_1838_350,False,2,2AFCnew,2020_Mar_26_1838,2IFCnew,
2IFCnew,40,0,40,0,0.18227450002450496,6,No,8,-1,Miss,0.5014682000037283,True,False,2,2,1,stimulus2AFCnew_2IFCnew_2020_Mar_26_1838_351,stimulus2AFCnew_2IFCnew_2020_Mar_26_1838_352,False,2,2AFCnew,2020_Mar_26_1838,2IFCnew,
2IFCnew,41,0,41,0,-1,3,null,8,-1,Correct Rejection,0.6842441000044346,False,True,2,0,2,stimulus2AFCnew_2IFCnew_2020_Mar_26_1838_353,stimulus2AFCnew_2IFCnew_2020_Mar_26_1838_354,False,2,2AFCnew,2020_Mar_26_1838,2IFCnew,
2IFCnew,42,0,42,0,-1,1,null,8,-1,Hit,0.3994085000595078,True,False,1,0,1,stimulus2AFCnew_2IFCnew_2020_Mar_26_1838_355,stimulus2AFCnew_2IFCnew_2020_Mar_26_1838_356,False,2,2AFCnew,2020_Mar_26_1838,2IFCnew,
2IFCnew,43,0,43,0,-1,1,null,8,-1,Hit,0.41782910004258156,True,False,1,0,1,stimulus2AFCnew_2IFCnew_2020_Mar_26_1838_357,stimulus2AFCnew_2IFCnew_2020_Mar_26_1838_358,False,2,2AFCnew,2020_Mar_26_1838,2IFCnew,
2IFCnew,44,0,44,0,-1,3,null,8,-1,Correct Rejection,0.4495113999582827,False,True,2,0,2,stimulus2AFCnew_2IFCnew_2020_Mar_26_1838_359,stimulus2AFCnew_2IFCnew_2020_Mar_26_1838_360,False,2,2AFCnew,2020_Mar_26_1838,2IFCnew,
2IFCnew,0,0,0,0,-1,3,null,6,-1,Correct Rejection,0.5174439999973401,False,True,2,0,2,stimulus2AFCnew_2IFCnew_2020_Mar_26_1838_361,stimulus2AFCnew_2IFCnew_2020_Mar_26_1838_362,False,2,2AFCnew,2020_Mar_26_1838,2IFCnew,
2IFCnew,1,0,1,0,-1,3,null,6,-1,Correct Rejection,0.4849656999576837,False,True,2,0,2,stimulus2AFCnew_2IFCnew_2020_Mar_26_1838_363,stimulus2AFCnew_2IFCnew_2020_Mar_26_1838_364,False,2,2AFCnew,2020_Mar_26_1838,2IFCnew,
2IFCnew,2,0,2,0,-1,3,null,6,-1,Correct Rejection,0.3491713999537751,False,True,2,0,2,stimulus2AFCnew_2IFCnew_2020_Mar_26_1838_365,stimulus2AFCnew_2IFCnew_2020_Mar_26_1838_366,False,2,2AFCnew,2020_Mar_26_1838,2IFCnew,
2IFCnew,3,0,3,0,-1,3,null,6,-1,Correct Rejection,0.6184407999971882,False,True,2,0,2,stimulus2AFCnew_2IFCnew_2020_Mar_26_1838_367,stimulus2AFCnew_2IFCnew_2020_Mar_26_1838_368,False,2,2AFCnew,2020_Mar_26_1838,2IFCnew,
2IFCnew,4,0,4,0,-1,3,null,6,-1,Correct Rejection,0.4841016000136733,False,True,2,0,2,stimulus2AFCnew_2IFCnew_2020_Mar_26_1838_369,stimulus2AFCnew_2IFCnew_2020_Mar_26_1838_370,False,2,2AFCnew,2020_Mar_26_1838,2IFCnew,
2IFCnew,5,0,5,0,-1,2,null,6,-1,False Alarm,0.46729319996666163,False,True,1,0,2,stimulus2AFCnew_2IFCnew_2020_Mar_26_1838_371,stimulus2AFCnew_2IFCnew_2020_Mar_26_1838_372,False,2,2AFCnew,2020_Mar_26_1838,2IFCnew,
2IFCnew,6,0,6,0,-1,1,null,6,-1,Hit,0.4840438000392169,True,False,1,0,1,stimulus2AFCnew_2IFCnew_2020_Mar_26_1838_373,stimulus2AFCnew_2IFCnew_2020_Mar_26_1838_374,False,2,2AFCnew,2020_Mar_26_1838,2IFCnew,
2IFCnew,7,0,7,0,0.680633999989368,5,Yes,6,-1,False Alarm,0.5182702000020072,False,True,1,1,2,stimulus2AFCnew_2IFCnew_2020_Mar_26_1838_375,stimulus2AFCnew_2IFCnew_2020_Mar_26_1838_376,False,2,2AFCnew,2020_Mar_26_1838,2IFCnew,
2IFCnew,8,0,8,0,-1,1,null,6,-1,Hit,0.4507346999598667,True,False,1,0,1,stimulus2AFCnew_2IFCnew_2020_Mar_26_1838_377,stimulus2AFCnew_2IFCnew_2020_Mar_26_1838_378,False,2,2AFCnew,2020_Mar_26_1838,2IFCnew,
2IFCnew,9,0,9,0,-1,3,null,6,-1,Correct Rejection,0.5007661000126973,False,True,2,0,2,stimulus2AFCnew_2IFCnew_2020_Mar_26_1838_379,stimulus2AFCnew_2IFCnew_2020_Mar_26_1838_380,False,2,2AFCnew,2020_Mar_26_1838,2IFCnew,
2IFCnew,10,0,10,0,-1,1,null,6,-1,Hit,0.7182144999969751,True,False,1,0,1,stimulus2AFCnew_2IFCnew_2020_Mar_26_1838_381,stimulus2AFCnew_2IFCnew_2020_Mar_26_1838_382,False,2,2AFCnew,2020_Mar_26_1838,2IFCnew,
2IFCnew,11,0,11,0,-1,3,null,6,-1,Correct Rejection,0.3817654999438673,False,True,2,0,2,stimulus2AFCnew_2IFCnew_2020_Mar_26_1838_383,stimulus2AFCnew_2IFCnew_2020_Mar_26_1838_384,False,2,2AFCnew,2020_Mar_26_1838,2IFCnew,
2IFCnew,12,0,12,0,-1,1,null,6,-1,Hit,0.4361777000594884,True,False,1,0,1,stimulus2AFCnew_2IFCnew_2020_Mar_26_1838_385,stimulus2AFCnew_2IFCnew_2020_Mar_26_1838_386,False,2,2AFCnew,2020_Mar_26_1838,2IFCnew,
2IFCnew,13,0,13,0,-1,3,null,6,-1,Correct Rejection,0.3674588999710977,False,True,2,0,2,stimulus2AFCnew_2IFCnew_2020_Mar_26_1838_387,stimulus2AFCnew_2IFCnew_2020_Mar_26_1838_388,False,2,2AFCnew,2020_Mar_26_1838,2IFCnew,
2IFCnew,14,0,14,0,-1,3,null,6,-1,Correct Rejection,0.6007932999636978,False,True,2,0,2,stimulus2AFCnew_2IFCnew_2020_Mar_26_1838_389,stimulus2AFCnew_2IFCnew_2020_Mar_26_1838_390,False,2,2AFCnew,2020_Mar_26_1838,2IFCnew,
2IFCnew,15,0,15,0,-1,2,null,6,-1,False Alarm,0.4342959000496194,False,True,1,0,2,stimulus2AFCnew_2IFCnew_2020_Mar_26_1838_391,stimulus2AFCnew_2IFCnew_2020_Mar_26_1838_392,False,2,2AFCnew,2020_Mar_26_1838,2IFCnew,
2IFCnew,16,0,16,0,0.6838734999764711,8,No,6,-1,Correct Rejection,0.6324189000297338,False,True,2,2,2,stimulus2AFCnew_2IFCnew_2020_Mar_26_1838_393,stimulus2AFCnew_2IFCnew_2020_Mar_26_1838_394,False,2,2AFCnew,2020_Mar_26_1838,2IFCnew,
2IFCnew,17,0,17,0,-1,1,null,6,-1,Hit,0.38389139994978905,True,False,1,0,1,stimulus2AFCnew_2IFCnew_2020_Mar_26_1838_395,stimulus2AFCnew_2IFCnew_2020_Mar_26_1838_396,False,2,2AFCnew,2020_Mar_26_1838,2IFCnew,
2IFCnew,18,0,18,0,-1,3,null,6,-1,Correct Rejection,0.4656870000762865,False,True,2,0,2,stimulus2AFCnew_2IFCnew_2020_Mar_26_1838_397,stimulus2AFCnew_2IFCnew_2020_Mar_26_1838_398,False,2,2AFCnew,2020_Mar_26_1838,2IFCnew,
2IFCnew,19,0,19,0,0.45043989992700517,8,No,6,-1,Correct Rejection,0.5982425000984222,False,True,2,2,2,stimulus2AFCnew_2IFCnew_2020_Mar_26_1838_399,stimulus2AFCnew_2IFCnew_2020_Mar_26_1838_400,False,2,2AFCnew,2020_Mar_26_1838,2IFCnew,
2IFCnew,20,0,20,0,-1,3,null,6,-1,Correct Rejection,0.4999106000177562,False,True,2,0,2,stimulus2AFCnew_2IFCnew_2020_Mar_26_1838_401,stimulus2AFCnew_2IFCnew_2020_Mar_26_1838_402,False,2,2AFCnew,2020_Mar_26_1838,2IFCnew,
2IFCnew,21,0,21,0,-1,3,null,6,-1,Correct Rejection,0.5006092000985518,False,True,2,0,2,stimulus2AFCnew_2IFCnew_2020_Mar_26_1838_403,stimulus2AFCnew_2IFCnew_2020_Mar_26_1838_404,False,2,2AFCnew,2020_Mar_26_1838,2IFCnew,
2IFCnew,22,0,22,0,0.6680744000477716,8,No,6,-1,Correct Rejection,0.4666461000451818,False,True,2,2,2,stimulus2AFCnew_2IFCnew_2020_Mar_26_1838_405,stimulus2AFCnew_2IFCnew_2020_Mar_26_1838_406,False,2,2AFCnew,2020_Mar_26_1838,2IFCnew,
2IFCnew,23,0,23,0,-1,1,null,6,-1,Hit,0.35094870009925216,True,False,1,0,1,stimulus2AFCnew_2IFCnew_2020_Mar_26_1838_407,stimulus2AFCnew_2IFCnew_2020_Mar_26_1838_408,False,2,2AFCnew,2020_Mar_26_1838,2IFCnew,
2IFCnew,24,0,24,0,-1,1,null,6,-1,Hit,0.434140200028196,True,False,1,0,1,stimulus2AFCnew_2IFCnew_2020_Mar_26_1838_409,stimulus2AFCnew_2IFCnew_2020_Mar_26_1838_410,False,2,2AFCnew,2020_Mar_26_1838,2IFCnew,
2IFCnew,25,0,25,0,0.4200367999728769,1,No,6,-1,Hit,0.3499003999168053,True,False,1,2,1,stimulus2AFCnew_2IFCnew_2020_Mar_26_1838_411,stimulus2AFCnew_2IFCnew_2020_Mar_26_1838_412,False,2,2AFCnew,2020_Mar_26_1838,2IFCnew,
2IFCnew,26,0,26,0,0.20099230005871505,6,No,6,-1,Miss,0.4352214999962598,True,False,2,2,1,stimulus2AFCnew_2IFCnew_2020_Mar_26_1838_413,stimulus2AFCnew_2IFCnew_2020_Mar_26_1838_414,False,2,2AFCnew,2020_Mar_26_1838,2IFCnew,
2IFCnew,27,0,27,0,-1,3,null,6,-1,Correct Rejection,0.4341714000329375,False,True,2,0,2,stimulus2AFCnew_2IFCnew_2020_Mar_26_1838_415,stimulus2AFCnew_2IFCnew_2020_Mar_26_1838_416,False,2,2AFCnew,2020_Mar_26_1838,2IFCnew,
2IFCnew,28,0,28,0,-1,1,null,6,-1,Hit,0.4836629000492394,True,False,1,0,1,stimulus2AFCnew_2IFCnew_2020_Mar_26_1838_417,stimulus2AFCnew_2IFCnew_2020_Mar_26_1838_418,False,2,2AFCnew,2020_Mar_26_1838,2IFCnew,
2IFCnew,29,0,29,0,-1,3,null,6,-1,Correct Rejection,0.4342291000066325,False,True,2,0,2,stimulus2AFCnew_2IFCnew_2020_Mar_26_1838_419,stimulus2AFCnew_2IFCnew_2020_Mar_26_1838_420,False,2,2AFCnew,2020_Mar_26_1838,2IFCnew,
2IFCnew,30,0,30,0,-1,3,null,6,-1,Correct Rejection,0.48126070003490895,False,True,2,0,2,stimulus2AFCnew_2IFCnew_2020_Mar_26_1838_421,stimulus2AFCnew_2IFCnew_2020_Mar_26_1838_422,False,2,2AFCnew,2020_Mar_26_1838,2IFCnew,
2IFCnew,31,0,31,0,-1,3,null,6,-1,Correct Rejection,0.4345669000176713,False,True,2,0,2,stimulus2AFCnew_2IFCnew_2020_Mar_26_1838_423,stimulus2AFCnew_2IFCnew_2020_Mar_26_1838_424,False,2,2AFCnew,2020_Mar_26_1838,2IFCnew,
2IFCnew,32,0,32,0,-1,1,null,6,-1,Hit,0.43512360006570816,True,False,1,0,1,stimulus2AFCnew_2IFCnew_2020_Mar_26_1838_425,stimulus2AFCnew_2IFCnew_2020_Mar_26_1838_426,False,2,2AFCnew,2020_Mar_26_1838,2IFCnew,
2IFCnew,33,0,33,0,-1,3,null,6,-1,Correct Rejection,0.4676575999474153,False,True,2,0,2,stimulus2AFCnew_2IFCnew_2020_Mar_26_1838_427,stimulus2AFCnew_2IFCnew_2020_Mar_26_1838_428,False,2,2AFCnew,2020_Mar_26_1838,2IFCnew,
2IFCnew,34,0,34,0,-1,1,null,6,-1,Hit,0.46760340000037104,True,False,1,0,1,stimulus2AFCnew_2IFCnew_2020_Mar_26_1838_429,stimulus2AFCnew_2IFCnew_2020_Mar_26_1838_430,False,2,2AFCnew,2020_Mar_26_1838,2IFCnew,
2IFCnew,35,0,35,0,0.33400569995865226,8,No,6,-1,Correct Rejection,0.6158661999506876,False,True,2,2,2,stimulus2AFCnew_2IFCnew_2020_Mar_26_1838_431,stimulus2AFCnew_2IFCnew_2020_Mar_26_1838_432,False,2,2AFCnew,2020_Mar_26_1838,2IFCnew,
2IFCnew,36,0,36,0,-1,1,null,6,-1,Hit,0.4185155000304803,True,False,1,0,1,stimulus2AFCnew_2IFCnew_2020_Mar_26_1838_433,stimulus2AFCnew_2IFCnew_2020_Mar_26_1838_434,False,2,2AFCnew,2020_Mar_26_1838,2IFCnew,
2IFCnew,37,0,37,0,0.4339349999791011,8,No,6,-1,Correct Rejection,0.8348106000339612,False,True,2,2,2,stimulus2AFCnew_2IFCnew_2020_Mar_26_1838_435,stimulus2AFCnew_2IFCnew_2020_Mar_26_1838_436,False,2,2AFCnew,2020_Mar_26_1838,2IFCnew,
2IFCnew,38,0,38,0,-1,2,null,6,-1,False Alarm,0.25082950002979487,False,True,1,0,2,stimulus2AFCnew_2IFCnew_2020_Mar_26_1838_437,stimulus2AFCnew_2IFCnew_2020_Mar_26_1838_438,False,2,2AFCnew,2020_Mar_26_1838,2IFCnew,
2IFCnew,39,0,39,0,-1,3,null,6,-1,Correct Rejection,0.5316434999695048,False,True,2,0,2,stimulus2AFCnew_2IFCnew_2020_Mar_26_1838_439,stimulus2AFCnew_2IFCnew_2020_Mar_26_1838_440,False,2,2AFCnew,2020_Mar_26_1838,2IFCnew,
2IFCnew,40,0,40,0,-1,1,null,6,-1,Hit,0.4829501999774948,True,False,1,0,1,stimulus2AFCnew_2IFCnew_2020_Mar_26_1838_441,stimulus2AFCnew_2IFCnew_2020_Mar_26_1838_442,False,2,2AFCnew,2020_Mar_26_1838,2IFCnew,
2IFCnew,41,0,41,0,-1,3,null,6,-1,Correct Rejection,0.5498423000099137,False,True,2,0,2,stimulus2AFCnew_2IFCnew_2020_Mar_26_1838_443,stimulus2AFCnew_2IFCnew_2020_Mar_26_1838_444,False,2,2AFCnew,2020_Mar_26_1838,2IFCnew,
2IFCnew,42,0,42,0,-1,1,null,6,-1,Hit,0.38438719999976456,True,False,1,0,1,stimulus2AFCnew_2IFCnew_2020_Mar_26_1838_445,stimulus2AFCnew_2IFCnew_2020_Mar_26_1838_446,False,2,2AFCnew,2020_Mar_26_1838,2IFCnew,
2IFCnew,43,0,43,0,0.650956799974665,4,Yes,6,-1,Miss,0.5677733999909833,True,False,2,1,1,stimulus2AFCnew_2IFCnew_2020_Mar_26_1838_447,stimulus2AFCnew_2IFCnew_2020_Mar_26_1838_448,False,2,2AFCnew,2020_Mar_26_1838,2IFCnew,
2IFCnew,44,0,44,0,-1,1,null,6,-1,Hit,0.43431459995917976,True,False,1,0,1,stimulus2AFCnew_2IFCnew_2020_Mar_26_1838_449,stimulus2AFCnew_2IFCnew_2020_Mar_26_1838_450,False,2,2AFCnew,2020_Mar_26_1838,2IFCnew,
2IFCnew,0,0,0,0,-1,0,null,11,-1,No Answer,-1,False,True,0,0,2,stimulus2AFCnew_2IFCnew_2020_Mar_26_1838_451,stimulus2AFCnew_2IFCnew_2020_Mar_26_1838_452,False,2,2AFCnew,2020_Mar_26_1838,2IFCnew,
2IFCnew,1,0,1,0,0.38375370006542653,6,No,11,-1,Miss,0.38398550008423626,True,False,2,2,1,stimulus2AFCnew_2IFCnew_2020_Mar_26_1838_453,stimulus2AFCnew_2IFCnew_2020_Mar_26_1838_454,False,2,2AFCnew,2020_Mar_26_1838,2IFCnew,
2IFCnew,2,0,2,0,-1,1,null,11,-1,Hit,0.5173238000134006,True,False,1,0,1,stimulus2AFCnew_2IFCnew_2020_Mar_26_1838_455,stimulus2AFCnew_2IFCnew_2020_Mar_26_1838_456,False,2,2AFCnew,2020_Mar_26_1838,2IFCnew,
2IFCnew,3,0,3,0,-1,1,null,11,-1,Hit,0.3689882999751717,True,False,1,0,1,stimulus2AFCnew_2IFCnew_2020_Mar_26_1838_457,stimulus2AFCnew_2IFCnew_2020_Mar_26_1838_458,False,2,2AFCnew,2020_Mar_26_1838,2IFCnew,
2IFCnew,4,0,4,0,-1,1,null,11,-1,Hit,0.43370900000445545,True,False,1,0,1,stimulus2AFCnew_2IFCnew_2020_Mar_26_1838_459,stimulus2AFCnew_2IFCnew_2020_Mar_26_1838_460,False,2,2AFCnew,2020_Mar_26_1838,2IFCnew,
2IFCnew,5,0,5,0,-1,3,null,11,-1,Correct Rejection,0.4814055999740958,False,True,2,0,2,stimulus2AFCnew_2IFCnew_2020_Mar_26_1838_461,stimulus2AFCnew_2IFCnew_2020_Mar_26_1838_462,False,2,2AFCnew,2020_Mar_26_1838,2IFCnew,
2IFCnew,6,0,6,0,0.6008198999334127,5,Yes,11,-1,False Alarm,0.38468949997331947,False,True,1,1,2,stimulus2AFCnew_2IFCnew_2020_Mar_26_1838_463,stimulus2AFCnew_2IFCnew_2020_Mar_26_1838_464,False,2,2AFCnew,2020_Mar_26_1838,2IFCnew,
2IFCnew,7,0,7,0,0.3171541999327019,5,Yes,11,-1,False Alarm,0.41742700000759214,False,True,1,1,2,stimulus2AFCnew_2IFCnew_2020_Mar_26_1838_465,stimulus2AFCnew_2IFCnew_2020_Mar_26_1838_466,False,2,2AFCnew,2020_Mar_26_1838,2IFCnew,
2IFCnew,8,0,8,0,0.3508640000363812,5,Yes,11,-1,False Alarm,0.4303977999370545,False,True,1,1,2,stimulus2AFCnew_2IFCnew_2020_Mar_26_1838_467,stimulus2AFCnew_2IFCnew_2020_Mar_26_1838_468,False,2,2AFCnew,2020_Mar_26_1838,2IFCnew,
2IFCnew,9,0,9,0,-1,1,null,11,-1,Hit,0.38343039993196726,True,False,1,0,1,stimulus2AFCnew_2IFCnew_2020_Mar_26_1838_469,stimulus2AFCnew_2IFCnew_2020_Mar_26_1838_470,False,2,2AFCnew,2020_Mar_26_1838,2IFCnew,
2IFCnew,10,0,10,0,-1,1,null,11,-1,Hit,0.3671594000188634,True,False,1,0,1,stimulus2AFCnew_2IFCnew_2020_Mar_26_1838_471,stimulus2AFCnew_2IFCnew_2020_Mar_26_1838_472,False,2,2AFCnew,2020_Mar_26_1838,2IFCnew,
2IFCnew,11,0,11,0,-1,1,null,11,-1,Hit,0.33646799996495247,True,False,1,0,1,stimulus2AFCnew_2IFCnew_2020_Mar_26_1838_473,stimulus2AFCnew_2IFCnew_2020_Mar_26_1838_474,False,2,2AFCnew,2020_Mar_26_1838,2IFCnew,
2IFCnew,12,0,12,0,-1,1,null,11,-1,Hit,0.35137010004837066,True,False,1,0,1,stimulus2AFCnew_2IFCnew_2020_Mar_26_1838_475,stimulus2AFCnew_2IFCnew_2020_Mar_26_1838_476,False,2,2AFCnew,2020_Mar_26_1838,2IFCnew,
2IFCnew,13,0,13,0,0.16742029995657504,5,Yes,11,-1,False Alarm,0.33421789994463325,False,True,1,1,2,stimulus2AFCnew_2IFCnew_2020_Mar_26_1838_477,stimulus2AFCnew_2IFCnew_2020_Mar_26_1838_478,False,2,2AFCnew,2020_Mar_26_1838,2IFCnew,
2IFCnew,14,0,14,0,-1,1,null,11,-1,Hit,0.40052260004449636,True,False,1,0,1,stimulus2AFCnew_2IFCnew_2020_Mar_26_1838_479,stimulus2AFCnew_2IFCnew_2020_Mar_26_1838_480,False,2,2AFCnew,2020_Mar_26_1838,2IFCnew,
2IFCnew,15,0,15,0,-1,3,null,11,-1,Correct Rejection,0.5674879000289366,False,True,2,0,2,stimulus2AFCnew_2IFCnew_2020_Mar_26_1838_481,stimulus2AFCnew_2IFCnew_2020_Mar_26_1838_482,False,2,2AFCnew,2020_Mar_26_1838,2IFCnew,
2IFCnew,16,0,16,0,-1,1,null,11,-1,Hit,0.34992099995724857,True,False,1,0,1,stimulus2AFCnew_2IFCnew_2020_Mar_26_1838_483,stimulus2AFCnew_2IFCnew_2020_Mar_26_1838_484,False,2,2AFCnew,2020_Mar_26_1838,2IFCnew,
2IFCnew,17,0,17,0,-1,3,null,11,-1,Correct Rejection,0.4836314000422135,False,True,2,0,2,stimulus2AFCnew_2IFCnew_2020_Mar_26_1838_485,stimulus2AFCnew_2IFCnew_2020_Mar_26_1838_486,False,2,2AFCnew,2020_Mar_26_1838,2IFCnew,
2IFCnew,18,0,18,0,-1,3,null,11,-1,Correct Rejection,0.5344353000400588,False,True,2,0,2,stimulus2AFCnew_2IFCnew_2020_Mar_26_1838_487,stimulus2AFCnew_2IFCnew_2020_Mar_26_1838_488,False,2,2AFCnew,2020_Mar_26_1838,2IFCnew,
2IFCnew,19,0,19,0,-1,1,null,11,-1,Hit,0.39939399994909763,True,False,1,0,1,stimulus2AFCnew_2IFCnew_2020_Mar_26_1838_489,stimulus2AFCnew_2IFCnew_2020_Mar_26_1838_490,False,2,2AFCnew,2020_Mar_26_1838,2IFCnew,
2IFCnew,20,0,20,0,-1,1,null,11,-1,Hit,0.3848125000949949,True,False,1,0,1,stimulus2AFCnew_2IFCnew_2020_Mar_26_1838_491,stimulus2AFCnew_2IFCnew_2020_Mar_26_1838_492,False,2,2AFCnew,2020_Mar_26_1838,2IFCnew,
2IFCnew,21,0,21,0,-1,3,null,11,-1,Correct Rejection,0.382224400062114,False,True,2,0,2,stimulus2AFCnew_2IFCnew_2020_Mar_26_1838_493,stimulus2AFCnew_2IFCnew_2020_Mar_26_1838_494,False,2,2AFCnew,2020_Mar_26_1838,2IFCnew,
2IFCnew,22,0,22,0,0.550546900019981,5,Yes,11,-1,False Alarm,0.2669454999268055,False,True,1,1,2,stimulus2AFCnew_2IFCnew_2020_Mar_26_1838_495,stimulus2AFCnew_2IFCnew_2020_Mar_26_1838_496,False,2,2AFCnew,2020_Mar_26_1838,2IFCnew,
2IFCnew,23,0,23,0,-1,1,null,11,-1,Hit,0.3487518000183627,True,False,1,0,1,stimulus2AFCnew_2IFCnew_2020_Mar_26_1838_497,stimulus2AFCnew_2IFCnew_2020_Mar_26_1838_498,False,2,2AFCnew,2020_Mar_26_1838,2IFCnew,
2IFCnew,24,0,24,0,-1,3,null,11,-1,Correct Rejection,0.5007352998945862,False,True,2,0,2,stimulus2AFCnew_2IFCnew_2020_Mar_26_1838_499,stimulus2AFCnew_2IFCnew_2020_Mar_26_1838_500,False,2,2AFCnew,2020_Mar_26_1838,2IFCnew,
2IFCnew,25,0,25,0,-1,1,null,11,-1,Hit,0.3339377000229433,True,False,1,0,1,stimulus2AFCnew_2IFCnew_2020_Mar_26_1838_501,stimulus2AFCnew_2IFCnew_2020_Mar_26_1838_502,False,2,2AFCnew,2020_Mar_26_1838,2IFCnew,
2IFCnew,26,0,26,0,-1,1,null,11,-1,Hit,0.3836985999951139,True,False,1,0,1,stimulus2AFCnew_2IFCnew_2020_Mar_26_1838_503,stimulus2AFCnew_2IFCnew_2020_Mar_26_1838_504,False,2,2AFCnew,2020_Mar_26_1838,2IFCnew,
2IFCnew,27,0,27,0,-1,3,null,11,-1,Correct Rejection,0.4673133000032976,False,True,2,0,2,stimulus2AFCnew_2IFCnew_2020_Mar_26_1838_505,stimulus2AFCnew_2IFCnew_2020_Mar_26_1838_506,False,2,2AFCnew,2020_Mar_26_1838,2IFCnew,
2IFCnew,28,0,28,0,-1,1,null,11,-1,Hit,0.41757989989127964,True,False,1,0,1,stimulus2AFCnew_2IFCnew_2020_Mar_26_1838_507,stimulus2AFCnew_2IFCnew_2020_Mar_26_1838_508,False,2,2AFCnew,2020_Mar_26_1838,2IFCnew,
2IFCnew,29,0,29,0,-1,1,null,11,-1,Hit,0.41656109993346035,True,False,1,0,1,stimulus2AFCnew_2IFCnew_2020_Mar_26_1838_509,stimulus2AFCnew_2IFCnew_2020_Mar_26_1838_510,False,2,2AFCnew,2020_Mar_26_1838,2IFCnew,
2IFCnew,30,0,30,0,-1,1,null,11,-1,Hit,0.48208660003729165,True,False,1,0,1,stimulus2AFCnew_2IFCnew_2020_Mar_26_1838_511,stimulus2AFCnew_2IFCnew_2020_Mar_26_1838_512,False,2,2AFCnew,2020_Mar_26_1838,2IFCnew,
2IFCnew,31,0,31,0,-1,0,null,11,-1,No Answer,-1,False,True,0,0,2,stimulus2AFCnew_2IFCnew_2020_Mar_26_1838_513,stimulus2AFCnew_2IFCnew_2020_Mar_26_1838_514,False,2,2AFCnew,2020_Mar_26_1838,2IFCnew,
2IFCnew,32,0,32,0,-1,1,null,11,-1,Hit,0.3675533999921754,True,False,1,0,1,stimulus2AFCnew_2IFCnew_2020_Mar_26_1838_515,stimulus2AFCnew_2IFCnew_2020_Mar_26_1838_516,False,2,2AFCnew,2020_Mar_26_1838,2IFCnew,
2IFCnew,33,0,33,0,-1,1,null,11,-1,Hit,0.4854864999651909,True,False,1,0,1,stimulus2AFCnew_2IFCnew_2020_Mar_26_1838_517,stimulus2AFCnew_2IFCnew_2020_Mar_26_1838_518,False,2,2AFCnew,2020_Mar_26_1838,2IFCnew,
2IFCnew,34,0,34,0,-1,0,null,11,-1,No Answer,-1,False,True,0,0,2,stimulus2AFCnew_2IFCnew_2020_Mar_26_1838_519,stimulus2AFCnew_2IFCnew_2020_Mar_26_1838_520,False,2,2AFCnew,2020_Mar_26_1838,2IFCnew,
2IFCnew,35,0,35,0,-1,1,null,11,-1,Hit,0.3847073999932036,True,False,1,0,1,stimulus2AFCnew_2IFCnew_2020_Mar_26_1838_521,stimulus2AFCnew_2IFCnew_2020_Mar_26_1838_522,False,2,2AFCnew,2020_Mar_26_1838,2IFCnew,
2IFCnew,36,0,36,0,0.4339262000285089,6,No,11,-1,Miss,0.40048559999559075,True,False,2,2,1,stimulus2AFCnew_2IFCnew_2020_Mar_26_1838_523,stimulus2AFCnew_2IFCnew_2020_Mar_26_1838_524,False,2,2AFCnew,2020_Mar_26_1838,2IFCnew,
2IFCnew,37,0,37,0,0.15184579999186099,5,Yes,11,-1,False Alarm,0.6003344000782818,False,True,1,1,2,stimulus2AFCnew_2IFCnew_2020_Mar_26_1838_525,stimulus2AFCnew_2IFCnew_2020_Mar_26_1838_526,False,2,2AFCnew,2020_Mar_26_1838,2IFCnew,
2IFCnew,38,0,38,0,-1,0,null,11,-1,No Answer,-1,False,True,0,0,2,stimulus2AFCnew_2IFCnew_2020_Mar_26_1838_527,stimulus2AFCnew_2IFCnew_2020_Mar_26_1838_528,False,2,2AFCnew,2020_Mar_26_1838,2IFCnew,
2IFCnew,39,0,39,0,0.3504987999331206,3,No,11,-1,False Alarm,0.4675163000356406,False,True,1,2,2,stimulus2AFCnew_2IFCnew_2020_Mar_26_1838_529,stimulus2AFCnew_2IFCnew_2020_Mar_26_1838_530,False,2,2AFCnew,2020_Mar_26_1838,2IFCnew,
2IFCnew,40,0,40,0,-1,3,null,11,-1,Correct Rejection,0.31666760006919503,False,True,2,0,2,stimulus2AFCnew_2IFCnew_2020_Mar_26_1838_531,stimulus2AFCnew_2IFCnew_2020_Mar_26_1838_532,False,2,2AFCnew,2020_Mar_26_1838,2IFCnew,
2IFCnew,41,0,41,0,-1,1,null,11,-1,Hit,0.4019800000824034,True,False,1,0,1,stimulus2AFCnew_2IFCnew_2020_Mar_26_1838_533,stimulus2AFCnew_2IFCnew_2020_Mar_26_1838_534,False,2,2AFCnew,2020_Mar_26_1838,2IFCnew,
2IFCnew,42,0,42,0,-1,3,null,11,-1,Correct Rejection,0.3010222999146208,False,True,2,0,2,stimulus2AFCnew_2IFCnew_2020_Mar_26_1838_535,stimulus2AFCnew_2IFCnew_2020_Mar_26_1838_536,False,2,2AFCnew,2020_Mar_26_1838,2IFCnew,
2IFCnew,43,0,43,0,-1,1,null,11,-1,Hit,0.4343966000014916,True,False,1,0,1,stimulus2AFCnew_2IFCnew_2020_Mar_26_1838_537,stimulus2AFCnew_2IFCnew_2020_Mar_26_1838_538,False,2,2AFCnew,2020_Mar_26_1838,2IFCnew,
2IFCnew,44,0,44,0,0.4677221999736503,2,Yes,11,-1,Correct Rejection,0.5673951999051496,False,True,2,1,2,stimulus2AFCnew_2IFCnew_2020_Mar_26_1838_539,stimulus2AFCnew_2IFCnew_2020_Mar_26_1838_540,False,2,2AFCnew,2020_Mar_26_1838,2IFCnew,
2IFCnew,0,0,0,0,-1,0,null,1,-1,No Answer,-1,True,False,0,0,1,stimulus2AFCnew_2IFCnew_2020_Mar_26_1838_541,stimulus2AFCnew_2IFCnew_2020_Mar_26_1838_542,False,2,2AFCnew,2020_Mar_26_1838,2IFCnew,
2IFCnew,1,0,1,0,0.48401779995765537,8,No,1,-1,Correct Rejection,0.4176765000447631,False,True,2,2,2,stimulus2AFCnew_2IFCnew_2020_Mar_26_1838_543,stimulus2AFCnew_2IFCnew_2020_Mar_26_1838_544,False,2,2AFCnew,2020_Mar_26_1838,2IFCnew,
2IFCnew,2,0,2,0,-1,0,null,1,-1,No Answer,-1,False,True,0,0,2,stimulus2AFCnew_2IFCnew_2020_Mar_26_1838_545,stimulus2AFCnew_2IFCnew_2020_Mar_26_1838_546,False,2,2AFCnew,2020_Mar_26_1838,2IFCnew,
2IFCnew,3,0,3,0,0.6016901999246329,6,No,1,-1,Miss,0.3174924000632018,True,False,2,2,1,stimulus2AFCnew_2IFCnew_2020_Mar_26_1838_547,stimulus2AFCnew_2IFCnew_2020_Mar_26_1838_548,False,2,2AFCnew,2020_Mar_26_1838,2IFCnew,
2IFCnew,4,0,4,0,0.35108900000341237,3,No,1,-1,False Alarm,0.36743340000975877,False,True,1,2,2,stimulus2AFCnew_2IFCnew_2020_Mar_26_1838_549,stimulus2AFCnew_2IFCnew_2020_Mar_26_1838_550,False,2,2AFCnew,2020_Mar_26_1838,2IFCnew,
2IFCnew,5,0,5,0,0.5004133000038564,6,No,1,-1,Miss,0.36743600002955645,True,False,2,2,1,stimulus2AFCnew_2IFCnew_2020_Mar_26_1838_551,stimulus2AFCnew_2IFCnew_2020_Mar_26_1838_552,False,2,2AFCnew,2020_Mar_26_1838,2IFCnew,
2IFCnew,6,0,6,0,0.5175676998915151,3,No,1,-1,False Alarm,0.3841933999210596,False,True,1,2,2,stimulus2AFCnew_2IFCnew_2020_Mar_26_1838_553,stimulus2AFCnew_2IFCnew_2020_Mar_26_1838_554,False,2,2AFCnew,2020_Mar_26_1838,2IFCnew,
2IFCnew,7,0,7,0,-1,3,null,1,-1,Correct Rejection,0.26658779999706894,False,True,2,0,2,stimulus2AFCnew_2IFCnew_2020_Mar_26_1838_555,stimulus2AFCnew_2IFCnew_2020_Mar_26_1838_556,False,2,2AFCnew,2020_Mar_26_1838,2IFCnew,
2IFCnew,8,0,8,0,0.4006262000184506,7,Yes,1,-1,Hit,0.4340538999531418,True,False,1,1,1,stimulus2AFCnew_2IFCnew_2020_Mar_26_1838_557,stimulus2AFCnew_2IFCnew_2020_Mar_26_1838_558,False,2,2AFCnew,2020_Mar_26_1838,2IFCnew,
2IFCnew,9,0,9,0,-1,0,null,1,-1,No Answer,-1,True,False,0,0,1,stimulus2AFCnew_2IFCnew_2020_Mar_26_1838_559,stimulus2AFCnew_2IFCnew_2020_Mar_26_1838_560,False,2,2AFCnew,2020_Mar_26_1838,2IFCnew,
2IFCnew,10,0,10,0,0.4841901999898255,1,No,1,-1,Hit,0.33354620006866753,True,False,1,2,1,stimulus2AFCnew_2IFCnew_2020_Mar_26_1838_561,stimulus2AFCnew_2IFCnew_2020_Mar_26_1838_562,False,2,2AFCnew,2020_Mar_26_1838,2IFCnew,
2IFCnew,11,0,11,0,-1,3,null,1,-1,Correct Rejection,0.4508149999892339,False,True,2,0,2,stimulus2AFCnew_2IFCnew_2020_Mar_26_1838_563,stimulus2AFCnew_2IFCnew_2020_Mar_26_1838_564,False,2,2AFCnew,2020_Mar_26_1838,2IFCnew,
2IFCnew,12,0,12,0,-1,1,null,1,-1,Hit,0.36704189993906766,True,False,1,0,1,stimulus2AFCnew_2IFCnew_2020_Mar_26_1838_565,stimulus2AFCnew_2IFCnew_2020_Mar_26_1838_566,False,2,2AFCnew,2020_Mar_26_1838,2IFCnew,
2IFCnew,13,0,13,0,-1,1,null,1,-1,Hit,0.3844588999636471,True,False,1,0,1,stimulus2AFCnew_2IFCnew_2020_Mar_26_1838_567,stimulus2AFCnew_2IFCnew_2020_Mar_26_1838_568,False,2,2AFCnew,2020_Mar_26_1838,2IFCnew,
2IFCnew,14,0,14,0,0.7150421999394894,6,No,1,-1,Miss,0.36858170002233237,True,False,2,2,1,stimulus2AFCnew_2IFCnew_2020_Mar_26_1838_569,stimulus2AFCnew_2IFCnew_2020_Mar_26_1838_570,False,2,2AFCnew,2020_Mar_26_1838,2IFCnew,
2IFCnew,15,0,15,0,0.2328986000502482,7,Yes,1,-1,Hit,0.4017240999964997,True,False,1,1,1,stimulus2AFCnew_2IFCnew_2020_Mar_26_1838_571,stimulus2AFCnew_2IFCnew_2020_Mar_26_1838_572,False,2,2AFCnew,2020_Mar_26_1838,2IFCnew,
2IFCnew,16,0,16,0,-1,4,null,1,-1,Miss,0.369578400044702,True,False,2,0,1,stimulus2AFCnew_2IFCnew_2020_Mar_26_1838_573,stimulus2AFCnew_2IFCnew_2020_Mar_26_1838_574,False,2,2AFCnew,2020_Mar_26_1838,2IFCnew,
2IFCnew,17,0,17,0,-1,1,null,1,-1,Hit,0.362358900019899,True,False,1,0,1,stimulus2AFCnew_2IFCnew_2020_Mar_26_1838_575,stimulus2AFCnew_2IFCnew_2020_Mar_26_1838_576,False,2,2AFCnew,2020_Mar_26_1838,2IFCnew,
2IFCnew,18,0,18,0,0.7171284999931231,5,Yes,1,-1,False Alarm,0.3505060999887064,False,True,1,1,2,stimulus2AFCnew_2IFCnew_2020_Mar_26_1838_577,stimulus2AFCnew_2IFCnew_2020_Mar_26_1838_578,False,2,2AFCnew,2020_Mar_26_1838,2IFCnew,
2IFCnew,19,0,19,0,0.5007325999904424,4,Yes,1,-1,Miss,0.4173435000702739,True,False,2,1,1,stimulus2AFCnew_2IFCnew_2020_Mar_26_1838_579,stimulus2AFCnew_2IFCnew_2020_Mar_26_1838_580,False,2,2AFCnew,2020_Mar_26_1838,2IFCnew,
2IFCnew,20,0,20,0,0.48354839999228716,6,No,1,-1,Miss,0.6999083999544382,True,False,2,2,1,stimulus2AFCnew_2IFCnew_2020_Mar_26_1838_581,stimulus2AFCnew_2IFCnew_2020_Mar_26_1838_582,False,2,2AFCnew,2020_Mar_26_1838,2IFCnew,
2IFCnew,21,0,21,0,-1,2,null,1,-1,False Alarm,0.6180674000643194,False,True,1,0,2,stimulus2AFCnew_2IFCnew_2020_Mar_26_1838_583,stimulus2AFCnew_2IFCnew_2020_Mar_26_1838_584,False,2,2AFCnew,2020_Mar_26_1838,2IFCnew,
2IFCnew,22,0,22,0,-1,3,null,1,-1,Correct Rejection,0.4001612999709323,False,True,2,0,2,stimulus2AFCnew_2IFCnew_2020_Mar_26_1838_585,stimulus2AFCnew_2IFCnew_2020_Mar_26_1838_586,False,2,2AFCnew,2020_Mar_26_1838,2IFCnew,
2IFCnew,23,0,23,0,-1,1,null,1,-1,Hit,0.48389890010003,True,False,1,0,1,stimulus2AFCnew_2IFCnew_2020_Mar_26_1838_587,stimulus2AFCnew_2IFCnew_2020_Mar_26_1838_588,False,2,2AFCnew,2020_Mar_26_1838,2IFCnew,
2IFCnew,24,0,24,0,0.5997522999532521,7,Yes,1,-1,Hit,0.4175886999582872,True,False,1,1,1,stimulus2AFCnew_2IFCnew_2020_Mar_26_1838_589,stimulus2AFCnew_2IFCnew_2020_Mar_26_1838_590,False,2,2AFCnew,2020_Mar_26_1838,2IFCnew,
2IFCnew,25,0,25,0,-1,1,null,1,-1,Hit,0.4680637000128627,True,False,1,0,1,stimulus2AFCnew_2IFCnew_2020_Mar_26_1838_591,stimulus2AFCnew_2IFCnew_2020_Mar_26_1838_592,False,2,2AFCnew,2020_Mar_26_1838,2IFCnew,
2IFCnew,26,0,26,0,-1,2,null,1,-1,False Alarm,0.4008653999771923,False,True,1,0,2,stimulus2AFCnew_2IFCnew_2020_Mar_26_1838_593,stimulus2AFCnew_2IFCnew_2020_Mar_26_1838_594,False,2,2AFCnew,2020_Mar_26_1838,2IFCnew,
2IFCnew,27,0,27,0,-1,1,null,1,-1,Hit,0.33410629990976304,True,False,1,0,1,stimulus2AFCnew_2IFCnew_2020_Mar_26_1838_595,stimulus2AFCnew_2IFCnew_2020_Mar_26_1838_596,False,2,2AFCnew,2020_Mar_26_1838,2IFCnew,
2IFCnew,28,0,28,0,-1,2,null,1,-1,False Alarm,0.3842923000920564,False,True,1,0,2,stimulus2AFCnew_2IFCnew_2020_Mar_26_1838_597,stimulus2AFCnew_2IFCnew_2020_Mar_26_1838_598,False,2,2AFCnew,2020_Mar_26_1838,2IFCnew,
2IFCnew,29,0,29,0,0.6640060000354424,7,Yes,1,-1,Hit,0.29977280006278306,True,False,1,1,1,stimulus2AFCnew_2IFCnew_2020_Mar_26_1838_599,stimulus2AFCnew_2IFCnew_2020_Mar_26_1838_600,False,2,2AFCnew,2020_Mar_26_1838,2IFCnew,
2IFCnew,30,0,30,0,-1,1,null,1,-1,Hit,0.46743060008157045,True,False,1,0,1,stimulus2AFCnew_2IFCnew_2020_Mar_26_1838_601,stimulus2AFCnew_2IFCnew_2020_Mar_26_1838_602,False,2,2AFCnew,2020_Mar_26_1838,2IFCnew,
2IFCnew,31,0,31,0,-1,1,null,1,-1,Hit,0.4008763999445364,True,False,1,0,1,stimulus2AFCnew_2IFCnew_2020_Mar_26_1838_603,stimulus2AFCnew_2IFCnew_2020_Mar_26_1838_604,False,2,2AFCnew,2020_Mar_26_1838,2IFCnew,
2IFCnew,32,0,32,0,0.6152175000170246,7,Yes,1,-1,Hit,0.6865153000690043,True,False,1,1,1,stimulus2AFCnew_2IFCnew_2020_Mar_26_1838_605,stimulus2AFCnew_2IFCnew_2020_Mar_26_1838_606,False,2,2AFCnew,2020_Mar_26_1838,2IFCnew,
2IFCnew,33,0,33,0,0.18329499999526888,8,No,1,-1,Correct Rejection,0.4502584000583738,False,True,2,2,2,stimulus2AFCnew_2IFCnew_2020_Mar_26_1838_607,stimulus2AFCnew_2IFCnew_2020_Mar_26_1838_608,False,2,2AFCnew,2020_Mar_26_1838,2IFCnew,
2IFCnew,34,0,34,0,0.41750430001411587,5,Yes,1,-1,False Alarm,0.3675113999051973,False,True,1,1,2,stimulus2AFCnew_2IFCnew_2020_Mar_26_1838_609,stimulus2AFCnew_2IFCnew_2020_Mar_26_1838_610,False,2,2AFCnew,2020_Mar_26_1838,2IFCnew,
2IFCnew,35,0,35,0,-1,1,null,1,-1,Hit,0.48546959995292127,True,False,1,0,1,stimulus2AFCnew_2IFCnew_2020_Mar_26_1838_611,stimulus2AFCnew_2IFCnew_2020_Mar_26_1838_612,False,2,2AFCnew,2020_Mar_26_1838,2IFCnew,
2IFCnew,36,0,36,0,0.6508146999403834,6,No,1,-1,Miss,0.4825160999316722,True,False,2,2,1,stimulus2AFCnew_2IFCnew_2020_Mar_26_1838_613,stimulus2AFCnew_2IFCnew_2020_Mar_26_1838_614,False,2,2AFCnew,2020_Mar_26_1838,2IFCnew,
2IFCnew,37,0,37,0,-1,2,null,1,-1,False Alarm,0.4511260000290349,False,True,1,0,2,stimulus2AFCnew_2IFCnew_2020_Mar_26_1838_615,stimulus2AFCnew_2IFCnew_2020_Mar_26_1838_616,False,2,2AFCnew,2020_Mar_26_1838,2IFCnew,
2IFCnew,38,0,38,0,-1,2,null,1,-1,False Alarm,0.36762629996519536,False,True,1,0,2,stimulus2AFCnew_2IFCnew_2020_Mar_26_1838_617,stimulus2AFCnew_2IFCnew_2020_Mar_26_1838_618,False,2,2AFCnew,2020_Mar_26_1838,2IFCnew,
2IFCnew,39,0,39,0,0.684077899903059,7,Yes,1,-1,Hit,0.3656582999974489,True,False,1,1,1,stimulus2AFCnew_2IFCnew_2020_Mar_26_1838_619,stimulus2AFCnew_2IFCnew_2020_Mar_26_1838_620,False,2,2AFCnew,2020_Mar_26_1838,2IFCnew,
2IFCnew,40,0,40,0,-1,2,null,1,-1,False Alarm,0.46832929993979633,False,True,1,0,2,stimulus2AFCnew_2IFCnew_2020_Mar_26_1838_621,stimulus2AFCnew_2IFCnew_2020_Mar_26_1838_622,False,2,2AFCnew,2020_Mar_26_1838,2IFCnew,
2IFCnew,41,0,41,0,0.617807799950242,8,No,1,-1,Correct Rejection,0.4345130999572575,False,True,2,2,2,stimulus2AFCnew_2IFCnew_2020_Mar_26_1838_623,stimulus2AFCnew_2IFCnew_2020_Mar_26_1838_624,False,2,2AFCnew,2020_Mar_26_1838,2IFCnew,
2IFCnew,42,0,42,0,0.5341250000055879,5,Yes,1,-1,False Alarm,0.41760510008316487,False,True,1,1,2,stimulus2AFCnew_2IFCnew_2020_Mar_26_1838_625,stimulus2AFCnew_2IFCnew_2020_Mar_26_1838_626,False,2,2AFCnew,2020_Mar_26_1838,2IFCnew,
2IFCnew,43,0,43,0,-1,2,null,1,-1,False Alarm,0.40209840005263686,False,True,1,0,2,stimulus2AFCnew_2IFCnew_2020_Mar_26_1838_627,stimulus2AFCnew_2IFCnew_2020_Mar_26_1838_628,False,2,2AFCnew,2020_Mar_26_1838,2IFCnew,
2IFCnew,44,0,44,0,-1,3,null,1,-1,Correct Rejection,0.38368510000873357,False,True,2,0,2,stimulus2AFCnew_2IFCnew_2020_Mar_26_1838_629,stimulus2AFCnew_2IFCnew_2020_Mar_26_1838_630,False,2,2AFCnew,2020_Mar_26_1838,2IFCnew,
2IFCnew,0,0,0,0,-1,0,null,9,-1,No Answer,-1,True,False,0,0,1,stimulus2AFCnew_2IFCnew_2020_Mar_26_1838_631,stimulus2AFCnew_2IFCnew_2020_Mar_26_1838_632,False,2,2AFCnew,2020_Mar_26_1838,2IFCnew,
2IFCnew,1,0,1,0,-1,0,null,9,-1,No Answer,-1,True,False,0,0,1,stimulus2AFCnew_2IFCnew_2020_Mar_26_1838_633,stimulus2AFCnew_2IFCnew_2020_Mar_26_1838_634,False,2,2AFCnew,2020_Mar_26_1838,2IFCnew,
2IFCnew,2,0,2,0,-1,0,null,9,-1,No Answer,-1,True,False,0,0,1,stimulus2AFCnew_2IFCnew_2020_Mar_26_1838_635,stimulus2AFCnew_2IFCnew_2020_Mar_26_1838_636,False,2,2AFCnew,2020_Mar_26_1838,2IFCnew,
2IFCnew,3,0,3,0,-1,0,null,9,-1,No Answer,-1,True,False,0,0,1,stimulus2AFCnew_2IFCnew_2020_Mar_26_1838_637,stimulus2AFCnew_2IFCnew_2020_Mar_26_1838_638,False,2,2AFCnew,2020_Mar_26_1838,2IFCnew,
2IFCnew,4,0,4,0,0.4172855999786407,2,Yes,9,-1,Correct Rejection,0.4839682000456378,False,True,2,1,2,stimulus2AFCnew_2IFCnew_2020_Mar_26_1838_639,stimulus2AFCnew_2IFCnew_2020_Mar_26_1838_640,False,2,2AFCnew,2020_Mar_26_1838,2IFCnew,
2IFCnew,5,0,5,0,0.5005989999044687,1,No,9,-1,Hit,0.3838951999787241,True,False,1,2,1,stimulus2AFCnew_2IFCnew_2020_Mar_26_1838_641,stimulus2AFCnew_2IFCnew_2020_Mar_26_1838_642,False,2,2AFCnew,2020_Mar_26_1838,2IFCnew,
2IFCnew,6,0,6,0,-1,1,null,9,-1,Hit,0.48512680002022535,True,False,1,0,1,stimulus2AFCnew_2IFCnew_2020_Mar_26_1838_643,stimulus2AFCnew_2IFCnew_2020_Mar_26_1838_644,False,2,2AFCnew,2020_Mar_26_1838,2IFCnew,
2IFCnew,7,0,7,0,0.30043830000795424,5,Yes,9,-1,False Alarm,0.3672376999165863,False,True,1,1,2,stimulus2AFCnew_2IFCnew_2020_Mar_26_1838_645,stimulus2AFCnew_2IFCnew_2020_Mar_26_1838_646,False,2,2AFCnew,2020_Mar_26_1838,2IFCnew,
2IFCnew,8,0,8,0,-1,3,null,9,-1,Correct Rejection,0.4496585000306368,False,True,2,0,2,stimulus2AFCnew_2IFCnew_2020_Mar_26_1838_647,stimulus2AFCnew_2IFCnew_2020_Mar_26_1838_648,False,2,2AFCnew,2020_Mar_26_1838,2IFCnew,
2IFCnew,9,0,9,0,-1,1,null,9,-1,Hit,0.4842691000085324,True,False,1,0,1,stimulus2AFCnew_2IFCnew_2020_Mar_26_1838_649,stimulus2AFCnew_2IFCnew_2020_Mar_26_1838_650,False,2,2AFCnew,2020_Mar_26_1838,2IFCnew,
2IFCnew,10,0,10,0,-1,1,null,9,-1,Hit,0.40087899996433407,True,False,1,0,1,stimulus2AFCnew_2IFCnew_2020_Mar_26_1838_651,stimulus2AFCnew_2IFCnew_2020_Mar_26_1838_652,False,2,2AFCnew,2020_Mar_26_1838,2IFCnew,
2IFCnew,11,0,11,0,0.18348150001838803,5,Yes,9,-1,False Alarm,0.35066230001393706,False,True,1,1,2,stimulus2AFCnew_2IFCnew_2020_Mar_26_1838_653,stimulus2AFCnew_2IFCnew_2020_Mar_26_1838_654,False,2,2AFCnew,2020_Mar_26_1838,2IFCnew,
2IFCnew,12,0,12,0,-1,1,null,9,-1,Hit,0.418823599931784,True,False,1,0,1,stimulus2AFCnew_2IFCnew_2020_Mar_26_1838_655,stimulus2AFCnew_2IFCnew_2020_Mar_26_1838_656,False,2,2AFCnew,2020_Mar_26_1838,2IFCnew,
2IFCnew,13,0,13,0,-1,1,null,9,-1,Hit,0.3846031000139192,True,False,1,0,1,stimulus2AFCnew_2IFCnew_2020_Mar_26_1838_657,stimulus2AFCnew_2IFCnew_2020_Mar_26_1838_658,False,2,2AFCnew,2020_Mar_26_1838,2IFCnew,
2IFCnew,14,0,14,0,-1,3,null,9,-1,Correct Rejection,0.5177045000018552,False,True,2,0,2,stimulus2AFCnew_2IFCnew_2020_Mar_26_1838_659,stimulus2AFCnew_2IFCnew_2020_Mar_26_1838_660,False,2,2AFCnew,2020_Mar_26_1838,2IFCnew,
2IFCnew,15,0,15,0,-1,3,null,9,-1,Correct Rejection,0.518183600041084,False,True,2,0,2,stimulus2AFCnew_2IFCnew_2020_Mar_26_1838_661,stimulus2AFCnew_2IFCnew_2020_Mar_26_1838_662,False,2,2AFCnew,2020_Mar_26_1838,2IFCnew,
2IFCnew,16,0,16,0,-1,1,null,9,-1,Hit,0.3841911000199616,True,False,1,0,1,stimulus2AFCnew_2IFCnew_2020_Mar_26_1838_663,stimulus2AFCnew_2IFCnew_2020_Mar_26_1838_664,False,2,2AFCnew,2020_Mar_26_1838,2IFCnew,
2IFCnew,17,0,17,0,-1,3,null,9,-1,Correct Rejection,0.5172605999978259,False,True,2,0,2,stimulus2AFCnew_2IFCnew_2020_Mar_26_1838_665,stimulus2AFCnew_2IFCnew_2020_Mar_26_1838_666,False,2,2AFCnew,2020_Mar_26_1838,2IFCnew,
2IFCnew,18,0,18,0,-1,1,null,9,-1,Hit,0.33422270009759814,True,False,1,0,1,stimulus2AFCnew_2IFCnew_2020_Mar_26_1838_667,stimulus2AFCnew_2IFCnew_2020_Mar_26_1838_668,False,2,2AFCnew,2020_Mar_26_1838,2IFCnew,
2IFCnew,19,0,19,0,-1,1,null,9,-1,Hit,0.30123049998655915,True,False,1,0,1,stimulus2AFCnew_2IFCnew_2020_Mar_26_1838_669,stimulus2AFCnew_2IFCnew_2020_Mar_26_1838_670,False,2,2AFCnew,2020_Mar_26_1838,2IFCnew,
2IFCnew,20,0,20,0,-1,1,null,9,-1,Hit,0.34948450000956655,True,False,1,0,1,stimulus2AFCnew_2IFCnew_2020_Mar_26_1838_671,stimulus2AFCnew_2IFCnew_2020_Mar_26_1838_672,False,2,2AFCnew,2020_Mar_26_1838,2IFCnew,
2IFCnew,21,0,21,0,0.15054560010321438,5,Yes,9,-1,False Alarm,0.35112010000739247,False,True,1,1,2,stimulus2AFCnew_2IFCnew_2020_Mar_26_1838_673,stimulus2AFCnew_2IFCnew_2020_Mar_26_1838_674,False,2,2AFCnew,2020_Mar_26_1838,2IFCnew,
2IFCnew,22,0,22,0,-1,3,null,9,-1,Correct Rejection,0.45077560003846884,False,True,2,0,2,stimulus2AFCnew_2IFCnew_2020_Mar_26_1838_675,stimulus2AFCnew_2IFCnew_2020_Mar_26_1838_676,False,2,2AFCnew,2020_Mar_26_1838,2IFCnew,
2IFCnew,23,0,23,0,-1,1,null,9,-1,Hit,0.3489244000520557,True,False,1,0,1,stimulus2AFCnew_2IFCnew_2020_Mar_26_1838_677,stimulus2AFCnew_2IFCnew_2020_Mar_26_1838_678,False,2,2AFCnew,2020_Mar_26_1838,2IFCnew,
2IFCnew,24,0,24,0,-1,1,null,9,-1,Hit,0.40285439998842776,True,False,1,0,1,stimulus2AFCnew_2IFCnew_2020_Mar_26_1838_679,stimulus2AFCnew_2IFCnew_2020_Mar_26_1838_680,False,2,2AFCnew,2020_Mar_26_1838,2IFCnew,
2IFCnew,25,0,25,0,-1,1,null,9,-1,Hit,0.4521171000087634,True,False,1,0,1,stimulus2AFCnew_2IFCnew_2020_Mar_26_1838_681,stimulus2AFCnew_2IFCnew_2020_Mar_26_1838_682,False,2,2AFCnew,2020_Mar_26_1838,2IFCnew,
2IFCnew,26,0,26,0,-1,2,null,9,-1,False Alarm,0.3676810000324622,False,True,1,0,2,stimulus2AFCnew_2IFCnew_2020_Mar_26_1838_683,stimulus2AFCnew_2IFCnew_2020_Mar_26_1838_684,False,2,2AFCnew,2020_Mar_26_1838,2IFCnew,
2IFCnew,27,0,27,0,-1,3,null,9,-1,Correct Rejection,0.33279169991146773,False,True,2,0,2,stimulus2AFCnew_2IFCnew_2020_Mar_26_1838_685,stimulus2AFCnew_2IFCnew_2020_Mar_26_1838_686,False,2,2AFCnew,2020_Mar_26_1838,2IFCnew,
2IFCnew,28,0,28,0,0.13364619994536042,5,Yes,9,-1,False Alarm,0.5014123000437394,False,True,1,1,2,stimulus2AFCnew_2IFCnew_2020_Mar_26_1838_687,stimulus2AFCnew_2IFCnew_2020_Mar_26_1838_688,False,2,2AFCnew,2020_Mar_26_1838,2IFCnew,
2IFCnew,29,0,29,0,-1,1,null,9,-1,Hit,0.3695977000752464,True,False,1,0,1,stimulus2AFCnew_2IFCnew_2020_Mar_26_1838_689,stimulus2AFCnew_2IFCnew_2020_Mar_26_1838_690,False,2,2AFCnew,2020_Mar_26_1838,2IFCnew,
2IFCnew,30,0,30,0,-1,3,null,9,-1,Correct Rejection,0.43436740001197904,False,True,2,0,2,stimulus2AFCnew_2IFCnew_2020_Mar_26_1838_691,stimulus2AFCnew_2IFCnew_2020_Mar_26_1838_692,False,2,2AFCnew,2020_Mar_26_1838,2IFCnew,
2IFCnew,31,0,31,0,-1,4,null,9,-1,Miss,0.615678200032562,True,False,2,0,1,stimulus2AFCnew_2IFCnew_2020_Mar_26_1838_693,stimulus2AFCnew_2IFCnew_2020_Mar_26_1838_694,False,2,2AFCnew,2020_Mar_26_1838,2IFCnew,
2IFCnew,32,0,32,0,0.3831200000131503,5,Yes,9,-1,False Alarm,0.18348800006788224,False,True,1,1,2,stimulus2AFCnew_2IFCnew_2020_Mar_26_1838_695,stimulus2AFCnew_2IFCnew_2020_Mar_26_1838_696,False,2,2AFCnew,2020_Mar_26_1838,2IFCnew,
2IFCnew,33,0,33,0,0.33738309994805604,2,Yes,9,-1,Correct Rejection,0.40059110010042787,False,True,2,1,2,stimulus2AFCnew_2IFCnew_2020_Mar_26_1838_697,stimulus2AFCnew_2IFCnew_2020_Mar_26_1838_698,False,2,2AFCnew,2020_Mar_26_1838,2IFCnew,
2IFCnew,34,0,34,0,0.034153299988247454,5,Yes,9,-1,False Alarm,0.2523086000001058,False,True,1,1,2,stimulus2AFCnew_2IFCnew_2020_Mar_26_1838_699,stimulus2AFCnew_2IFCnew_2020_Mar_26_1838_700,False,2,2AFCnew,2020_Mar_26_1838,2IFCnew,
2IFCnew,35,0,35,0,-1,3,null,9,-1,Correct Rejection,0.4983254000544548,False,True,2,0,2,stimulus2AFCnew_2IFCnew_2020_Mar_26_1838_701,stimulus2AFCnew_2IFCnew_2020_Mar_26_1838_702,False,2,2AFCnew,2020_Mar_26_1838,2IFCnew,
2IFCnew,36,0,36,0,0.1843667000066489,5,Yes,9,-1,False Alarm,0.35050820000469685,False,True,1,1,2,stimulus2AFCnew_2IFCnew_2020_Mar_26_1838_703,stimulus2AFCnew_2IFCnew_2020_Mar_26_1838_704,False,2,2AFCnew,2020_Mar_26_1838,2IFCnew,
2IFCnew,37,0,37,0,-1,3,null,9,-1,Correct Rejection,0.46707910008262843,False,True,2,0,2,stimulus2AFCnew_2IFCnew_2020_Mar_26_1838_705,stimulus2AFCnew_2IFCnew_2020_Mar_26_1838_706,False,2,2AFCnew,2020_Mar_26_1838,2IFCnew,
2IFCnew,38,0,38,0,0.26633530005346984,5,Yes,9,-1,False Alarm,0.7350434999680147,False,True,1,1,2,stimulus2AFCnew_2IFCnew_2020_Mar_26_1838_707,stimulus2AFCnew_2IFCnew_2020_Mar_26_1838_708,False,2,2AFCnew,2020_Mar_26_1838,2IFCnew,
2IFCnew,39,0,39,0,0.31713579990901053,5,Yes,9,-1,False Alarm,0.3368870000122115,False,True,1,1,2,stimulus2AFCnew_2IFCnew_2020_Mar_26_1838_709,stimulus2AFCnew_2IFCnew_2020_Mar_26_1838_710,False,2,2AFCnew,2020_Mar_26_1838,2IFCnew,
2IFCnew,40,0,40,0,-1,3,null,9,-1,Correct Rejection,0.4007732999743894,False,True,2,0,2,stimulus2AFCnew_2IFCnew_2020_Mar_26_1838_711,stimulus2AFCnew_2IFCnew_2020_Mar_26_1838_712,False,2,2AFCnew,2020_Mar_26_1838,2IFCnew,
2IFCnew,41,0,41,0,-1,3,null,9,-1,Correct Rejection,0.4673866000957787,False,True,2,0,2,stimulus2AFCnew_2IFCnew_2020_Mar_26_1838_713,stimulus2AFCnew_2IFCnew_2020_Mar_26_1838_714,False,2,2AFCnew,2020_Mar_26_1838,2IFCnew,
2IFCnew,42,0,42,0,0.1338052999926731,6,No,9,-1,Miss,0.4171618999680504,True,False,2,2,1,stimulus2AFCnew_2IFCnew_2020_Mar_26_1838_715,stimulus2AFCnew_2IFCnew_2020_Mar_26_1838_716,False,2,2AFCnew,2020_Mar_26_1838,2IFCnew,
2IFCnew,43,0,43,0,-1,3,null,9,-1,Correct Rejection,0.4817048000404611,False,True,2,0,2,stimulus2AFCnew_2IFCnew_2020_Mar_26_1838_717,stimulus2AFCnew_2IFCnew_2020_Mar_26_1838_718,False,2,2AFCnew,2020_Mar_26_1838,2IFCnew,
2IFCnew,44,0,44,0,-1,1,null,9,-1,Hit,0.3506095999618992,True,False,1,0,1,stimulus2AFCnew_2IFCnew_2020_Mar_26_1838_719,stimulus2AFCnew_2IFCnew_2020_Mar_26_1838_720,False,2,2AFCnew,2020_Mar_26_1838,2IFCnew,
2IFCnew,0,0,0,0,-1,4,null,3,-1,Miss,0.43418629991356283,True,False,2,0,1,stimulus2AFCnew_2IFCnew_2020_Mar_26_1838_721,stimulus2AFCnew_2IFCnew_2020_Mar_26_1838_722,False,2,2AFCnew,2020_Mar_26_1838,2IFCnew,
2IFCnew,1,0,1,0,0.40065740002319217,1,No,3,-1,Hit,0.2173043000511825,True,False,1,2,1,stimulus2AFCnew_2IFCnew_2020_Mar_26_1838_723,stimulus2AFCnew_2IFCnew_2020_Mar_26_1838_724,False,2,2AFCnew,2020_Mar_26_1838,2IFCnew,
2IFCnew,2,0,2,0,-1,1,null,3,-1,Hit,0.5511657000752166,True,False,1,0,1,stimulus2AFCnew_2IFCnew_2020_Mar_26_1838_725,stimulus2AFCnew_2IFCnew_2020_Mar_26_1838_726,False,2,2AFCnew,2020_Mar_26_1838,2IFCnew,
2IFCnew,3,0,3,0,-1,1,null,3,-1,Hit,0.38397349999286234,True,False,1,0,1,stimulus2AFCnew_2IFCnew_2020_Mar_26_1838_727,stimulus2AFCnew_2IFCnew_2020_Mar_26_1838_728,False,2,2AFCnew,2020_Mar_26_1838,2IFCnew,
2IFCnew,4,0,4,0,-1,3,null,3,-1,Correct Rejection,0.45074959995690733,False,True,2,0,2,stimulus2AFCnew_2IFCnew_2020_Mar_26_1838_729,stimulus2AFCnew_2IFCnew_2020_Mar_26_1838_730,False,2,2AFCnew,2020_Mar_26_1838,2IFCnew,
2IFCnew,5,0,5,0,-1,0,null,3,-1,No Answer,-1,False,True,0,0,2,stimulus2AFCnew_2IFCnew_2020_Mar_26_1838_731,stimulus2AFCnew_2IFCnew_2020_Mar_26_1838_732,False,2,2AFCnew,2020_Mar_26_1838,2IFCnew,
2IFCnew,6,0,6,0,-1,1,null,3,-1,Hit,0.3843833999708295,True,False,1,0,1,stimulus2AFCnew_2IFCnew_2020_Mar_26_1838_733,stimulus2AFCnew_2IFCnew_2020_Mar_26_1838_734,False,2,2AFCnew,2020_Mar_26_1838,2IFCnew,
2IFCnew,7,0,7,0,-1,4,null,3,-1,Miss,0.41895059996750206,True,False,2,0,1,stimulus2AFCnew_2IFCnew_2020_Mar_26_1838_735,stimulus2AFCnew_2IFCnew_2020_Mar_26_1838_736,False,2,2AFCnew,2020_Mar_26_1838,2IFCnew,
2IFCnew,8,0,8,0,0.26724890002515167,7,Yes,3,-1,Hit,0.2651388000231236,True,False,1,1,1,stimulus2AFCnew_2IFCnew_2020_Mar_26_1838_737,stimulus2AFCnew_2IFCnew_2020_Mar_26_1838_738,False,2,2AFCnew,2020_Mar_26_1838,2IFCnew,
2IFCnew,9,0,9,0,-1,3,null,3,-1,Correct Rejection,0.36692389997188,False,True,2,0,2,stimulus2AFCnew_2IFCnew_2020_Mar_26_1838_739,stimulus2AFCnew_2IFCnew_2020_Mar_26_1838_740,False,2,2AFCnew,2020_Mar_26_1838,2IFCnew,
2IFCnew,10,0,10,0,-1,4,null,3,-1,Miss,0.46757009997963905,True,False,2,0,1,stimulus2AFCnew_2IFCnew_2020_Mar_26_1838_741,stimulus2AFCnew_2IFCnew_2020_Mar_26_1838_742,False,2,2AFCnew,2020_Mar_26_1838,2IFCnew,
2IFCnew,11,0,11,0,-1,1,null,3,-1,Hit,0.11624339991249144,True,False,1,0,1,stimulus2AFCnew_2IFCnew_2020_Mar_26_1838_743,stimulus2AFCnew_2IFCnew_2020_Mar_26_1838_744,False,2,2AFCnew,2020_Mar_26_1838,2IFCnew,
2IFCnew,12,0,12,0,-1,1,null,3,-1,Hit,0.38234389992430806,True,False,1,0,1,stimulus2AFCnew_2IFCnew_2020_Mar_26_1838_745,stimulus2AFCnew_2IFCnew_2020_Mar_26_1838_746,False,2,2AFCnew,2020_Mar_26_1838,2IFCnew,
2IFCnew,13,0,13,0,-1,2,null,3,-1,False Alarm,0.36768300004769117,False,True,1,0,2,stimulus2AFCnew_2IFCnew_2020_Mar_26_1838_747,stimulus2AFCnew_2IFCnew_2020_Mar_26_1838_748,False,2,2AFCnew,2020_Mar_26_1838,2IFCnew,
2IFCnew,14,0,14,0,0.23400250007398427,7,Yes,3,-1,Hit,0.3008848000317812,True,False,1,1,1,stimulus2AFCnew_2IFCnew_2020_Mar_26_1838_749,stimulus2AFCnew_2IFCnew_2020_Mar_26_1838_750,False,2,2AFCnew,2020_Mar_26_1838,2IFCnew,
2IFCnew,15,0,15,0,0.667149499990046,6,No,3,-1,Miss,0.2669251000043005,True,False,2,2,1,stimulus2AFCnew_2IFCnew_2020_Mar_26_1838_751,stimulus2AFCnew_2IFCnew_2020_Mar_26_1838_752,False,2,2AFCnew,2020_Mar_26_1838,2IFCnew,
2IFCnew,16,0,16,0,-1,1,null,3,-1,Hit,0.4670024000806734,True,False,1,0,1,stimulus2AFCnew_2IFCnew_2020_Mar_26_1838_753,stimulus2AFCnew_2IFCnew_2020_Mar_26_1838_754,False,2,2AFCnew,2020_Mar_26_1838,2IFCnew,
2IFCnew,17,0,17,0,0.5340582999633625,1,No,3,-1,Hit,0.31755800009705126,True,False,1,2,1,stimulus2AFCnew_2IFCnew_2020_Mar_26_1838_755,stimulus2AFCnew_2IFCnew_2020_Mar_26_1838_756,False,2,2AFCnew,2020_Mar_26_1838,2IFCnew,
2IFCnew,18,0,18,0,0.4172147000208497,5,Yes,3,-1,False Alarm,0.38408409990370274,False,True,1,1,2,stimulus2AFCnew_2IFCnew_2020_Mar_26_1838_757,stimulus2AFCnew_2IFCnew_2020_Mar_26_1838_758,False,2,2AFCnew,2020_Mar_26_1838,2IFCnew,
2IFCnew,19,0,19,0,-1,1,null,3,-1,Hit,0.6004316000035033,True,False,1,0,1,stimulus2AFCnew_2IFCnew_2020_Mar_26_1838_759,stimulus2AFCnew_2IFCnew_2020_Mar_26_1838_760,False,2,2AFCnew,2020_Mar_26_1838,2IFCnew,
2IFCnew,20,0,20,0,-1,3,null,3,-1,Correct Rejection,0.5171316999476403,False,True,2,0,2,stimulus2AFCnew_2IFCnew_2020_Mar_26_1838_761,stimulus2AFCnew_2IFCnew_2020_Mar_26_1838_762,False,2,2AFCnew,2020_Mar_26_1838,2IFCnew,
2IFCnew,21,0,21,0,-1,1,null,3,-1,Hit,0.415684099891223,True,False,1,0,1,stimulus2AFCnew_2IFCnew_2020_Mar_26_1838_763,stimulus2AFCnew_2IFCnew_2020_Mar_26_1838_764,False,2,2AFCnew,2020_Mar_26_1838,2IFCnew,
2IFCnew,22,0,22,0,-1,4,null,3,-1,Miss,0.4177004999946803,True,False,2,0,1,stimulus2AFCnew_2IFCnew_2020_Mar_26_1838_765,stimulus2AFCnew_2IFCnew_2020_Mar_26_1838_766,False,2,2AFCnew,2020_Mar_26_1838,2IFCnew,
2IFCnew,23,0,23,0,-1,1,null,3,-1,Hit,0.28402379993349314,True,False,1,0,1,stimulus2AFCnew_2IFCnew_2020_Mar_26_1838_767,stimulus2AFCnew_2IFCnew_2020_Mar_26_1838_768,False,2,2AFCnew,2020_Mar_26_1838,2IFCnew,
2IFCnew,24,0,24,0,-1,1,null,3,-1,Hit,0.45052760001271963,True,False,1,0,1,stimulus2AFCnew_2IFCnew_2020_Mar_26_1838_769,stimulus2AFCnew_2IFCnew_2020_Mar_26_1838_770,False,2,2AFCnew,2020_Mar_26_1838,2IFCnew,
2IFCnew,25,0,25,0,-1,1,null,3,-1,Hit,0.4812300999183208,True,False,1,0,1,stimulus2AFCnew_2IFCnew_2020_Mar_26_1838_771,stimulus2AFCnew_2IFCnew_2020_Mar_26_1838_772,False,2,2AFCnew,2020_Mar_26_1838,2IFCnew,
2IFCnew,26,0,26,0,0.7491932999109849,6,No,3,-1,Miss,0.4843249999685213,True,False,2,2,1,stimulus2AFCnew_2IFCnew_2020_Mar_26_1838_773,stimulus2AFCnew_2IFCnew_2020_Mar_26_1838_774,False,2,2AFCnew,2020_Mar_26_1838,2IFCnew,
2IFCnew,27,0,27,0,0.667606099974364,2,Yes,3,-1,Correct Rejection,0.45066630002111197,False,True,2,1,2,stimulus2AFCnew_2IFCnew_2020_Mar_26_1838_775,stimulus2AFCnew_2IFCnew_2020_Mar_26_1838_776,False,2,2AFCnew,2020_Mar_26_1838,2IFCnew,
2IFCnew,28,0,28,0,0.7008650000207126,5,Yes,3,-1,False Alarm,0.38405299989972264,False,True,1,1,2,stimulus2AFCnew_2IFCnew_2020_Mar_26_1838_777,stimulus2AFCnew_2IFCnew_2020_Mar_26_1838_778,False,2,2AFCnew,2020_Mar_26_1838,2IFCnew,
2IFCnew,29,0,29,0,-1,1,null,3,-1,Hit,0.4844146000687033,True,False,1,0,1,stimulus2AFCnew_2IFCnew_2020_Mar_26_1838_779,stimulus2AFCnew_2IFCnew_2020_Mar_26_1838_780,False,2,2AFCnew,2020_Mar_26_1838,2IFCnew,
2IFCnew,30,0,30,0,-1,2,null,3,-1,False Alarm,0.3674080999335274,False,True,1,0,2,stimulus2AFCnew_2IFCnew_2020_Mar_26_1838_781,stimulus2AFCnew_2IFCnew_2020_Mar_26_1838_782,False,2,2AFCnew,2020_Mar_26_1838,2IFCnew,
2IFCnew,31,0,31,0,-1,3,null,3,-1,Correct Rejection,0.4150347999529913,False,True,2,0,2,stimulus2AFCnew_2IFCnew_2020_Mar_26_1838_783,stimulus2AFCnew_2IFCnew_2020_Mar_26_1838_784,False,2,2AFCnew,2020_Mar_26_1838,2IFCnew,
2IFCnew,32,0,32,0,0.48320219991728663,6,No,3,-1,Miss,0.5683415000094101,True,False,2,2,1,stimulus2AFCnew_2IFCnew_2020_Mar_26_1838_785,stimulus2AFCnew_2IFCnew_2020_Mar_26_1838_786,False,2,2AFCnew,2020_Mar_26_1838,2IFCnew,
2IFCnew,33,0,33,0,-1,2,null,3,-1,False Alarm,0.6032052000518888,False,True,1,0,2,stimulus2AFCnew_2IFCnew_2020_Mar_26_1838_787,stimulus2AFCnew_2IFCnew_2020_Mar_26_1838_788,False,2,2AFCnew,2020_Mar_26_1838,2IFCnew,
2IFCnew,34,0,34,0,-1,2,null,3,-1,False Alarm,0.3670089999213815,False,True,1,0,2,stimulus2AFCnew_2IFCnew_2020_Mar_26_1838_789,stimulus2AFCnew_2IFCnew_2020_Mar_26_1838_790,False,2,2AFCnew,2020_Mar_26_1838,2IFCnew,
2IFCnew,35,0,35,0,0.30108859995380044,8,No,3,-1,Correct Rejection,0.5846228000009432,False,True,2,2,2,stimulus2AFCnew_2IFCnew_2020_Mar_26_1838_791,stimulus2AFCnew_2IFCnew_2020_Mar_26_1838_792,False,2,2AFCnew,2020_Mar_26_1838,2IFCnew,
2IFCnew,36,0,36,0,-1,3,null,3,-1,Correct Rejection,0.4505974999628961,False,True,2,0,2,stimulus2AFCnew_2IFCnew_2020_Mar_26_1838_793,stimulus2AFCnew_2IFCnew_2020_Mar_26_1838_794,False,2,2AFCnew,2020_Mar_26_1838,2IFCnew,
2IFCnew,37,0,37,0,-1,1,null,3,-1,Hit,0.3673897000262514,True,False,1,0,1,stimulus2AFCnew_2IFCnew_2020_Mar_26_1838_795,stimulus2AFCnew_2IFCnew_2020_Mar_26_1838_796,False,2,2AFCnew,2020_Mar_26_1838,2IFCnew,
2IFCnew,38,0,38,0,-1,2,null,3,-1,False Alarm,0.4842691000085324,False,True,1,0,2,stimulus2AFCnew_2IFCnew_2020_Mar_26_1838_797,stimulus2AFCnew_2IFCnew_2020_Mar_26_1838_798,False,2,2AFCnew,2020_Mar_26_1838,2IFCnew,
2IFCnew,39,0,39,0,-1,4,null,3,-1,Miss,0.41665519995149225,True,False,2,0,1,stimulus2AFCnew_2IFCnew_2020_Mar_26_1838_799,stimulus2AFCnew_2IFCnew_2020_Mar_26_1838_800,False,2,2AFCnew,2020_Mar_26_1838,2IFCnew,
2IFCnew,40,0,40,0,-1,2,null,3,-1,False Alarm,0.3000904000364244,False,True,1,0,2,stimulus2AFCnew_2IFCnew_2020_Mar_26_1838_801,stimulus2AFCnew_2IFCnew_2020_Mar_26_1838_802,False,2,2AFCnew,2020_Mar_26_1838,2IFCnew,
2IFCnew,41,0,41,0,0.3856991999782622,5,Yes,3,-1,False Alarm,0.30130140006076545,False,True,1,1,2,stimulus2AFCnew_2IFCnew_2020_Mar_26_1838_803,stimulus2AFCnew_2IFCnew_2020_Mar_26_1838_804,False,2,2AFCnew,2020_Mar_26_1838,2IFCnew,
2IFCnew,42,0,42,0,-1,1,null,3,-1,Hit,0.4159625999163836,True,False,1,0,1,stimulus2AFCnew_2IFCnew_2020_Mar_26_1838_805,stimulus2AFCnew_2IFCnew_2020_Mar_26_1838_806,False,2,2AFCnew,2020_Mar_26_1838,2IFCnew,
2IFCnew,43,0,43,0,0.5016553000314161,5,Yes,3,-1,False Alarm,0.4495355000253767,False,True,1,1,2,stimulus2AFCnew_2IFCnew_2020_Mar_26_1838_807,stimulus2AFCnew_2IFCnew_2020_Mar_26_1838_808,False,2,2AFCnew,2020_Mar_26_1838,2IFCnew,
2IFCnew,44,0,44,0,0.2840505000203848,8,No,3,-1,Correct Rejection,0.46531899995170534,False,True,2,2,2,stimulus2AFCnew_2IFCnew_2020_Mar_26_1838_809,stimulus2AFCnew_2IFCnew_2020_Mar_26_1838_810,False,2,2AFCnew,2020_Mar_26_1838,2IFCnew,
2IFCnew,0,0,0,0,-1,1,null,7,-1,Hit,0.4843426999868825,True,False,1,0,1,stimulus2AFCnew_2IFCnew_2020_Mar_26_1838_811,stimulus2AFCnew_2IFCnew_2020_Mar_26_1838_812,False,2,2AFCnew,2020_Mar_26_1838,2IFCnew,
2IFCnew,1,0,1,0,-1,3,null,7,-1,Correct Rejection,0.5676339999772608,False,True,2,0,2,stimulus2AFCnew_2IFCnew_2020_Mar_26_1838_813,stimulus2AFCnew_2IFCnew_2020_Mar_26_1838_814,False,2,2AFCnew,2020_Mar_26_1838,2IFCnew,
2IFCnew,2,0,2,0,-1,1,null,7,-1,Hit,0.3838487999746576,True,False,1,0,1,stimulus2AFCnew_2IFCnew_2020_Mar_26_1838_815,stimulus2AFCnew_2IFCnew_2020_Mar_26_1838_816,False,2,2AFCnew,2020_Mar_26_1838,2IFCnew,
2IFCnew,3,0,3,0,-1,1,null,7,-1,Hit,0.6168486000970006,True,False,1,0,1,stimulus2AFCnew_2IFCnew_2020_Mar_26_1838_817,stimulus2AFCnew_2IFCnew_2020_Mar_26_1838_818,False,2,2AFCnew,2020_Mar_26_1838,2IFCnew,
2IFCnew,4,0,4,0,-1,0,null,7,-1,No Answer,-1,False,True,0,0,2,stimulus2AFCnew_2IFCnew_2020_Mar_26_1838_819,stimulus2AFCnew_2IFCnew_2020_Mar_26_1838_820,False,2,2AFCnew,2020_Mar_26_1838,2IFCnew,
2IFCnew,5,0,5,0,-1,1,null,7,-1,Hit,0.4343214000109583,True,False,1,0,1,stimulus2AFCnew_2IFCnew_2020_Mar_26_1838_821,stimulus2AFCnew_2IFCnew_2020_Mar_26_1838_822,False,2,2AFCnew,2020_Mar_26_1838,2IFCnew,
2IFCnew,6,0,6,0,-1,1,null,7,-1,Hit,0.41737359995022416,True,False,1,0,1,stimulus2AFCnew_2IFCnew_2020_Mar_26_1838_823,stimulus2AFCnew_2IFCnew_2020_Mar_26_1838_824,False,2,2AFCnew,2020_Mar_26_1838,2IFCnew,
2IFCnew,7,0,7,0,0.45205690001603216,8,No,7,-1,Correct Rejection,0.5006083999760449,False,True,2,2,2,stimulus2AFCnew_2IFCnew_2020_Mar_26_1838_825,stimulus2AFCnew_2IFCnew_2020_Mar_26_1838_826,False,2,2AFCnew,2020_Mar_26_1838,2IFCnew,
2IFCnew,8,0,8,0,-1,1,null,7,-1,Hit,0.38298049999866635,True,False,1,0,1,stimulus2AFCnew_2IFCnew_2020_Mar_26_1838_827,stimulus2AFCnew_2IFCnew_2020_Mar_26_1838_828,False,2,2AFCnew,2020_Mar_26_1838,2IFCnew,
2IFCnew,9,0,9,0,-1,3,null,7,-1,Correct Rejection,0.49918659997638315,False,True,2,0,2,stimulus2AFCnew_2IFCnew_2020_Mar_26_1838_829,stimulus2AFCnew_2IFCnew_2020_Mar_26_1838_830,False,2,2AFCnew,2020_Mar_26_1838,2IFCnew,
2IFCnew,10,0,10,0,-1,1,null,7,-1,Hit,0.40071650000754744,True,False,1,0,1,stimulus2AFCnew_2IFCnew_2020_Mar_26_1838_831,stimulus2AFCnew_2IFCnew_2020_Mar_26_1838_832,False,2,2AFCnew,2020_Mar_26_1838,2IFCnew,
2IFCnew,11,0,11,0,-1,2,null,7,-1,False Alarm,0.5678549000294879,False,True,1,0,2,stimulus2AFCnew_2IFCnew_2020_Mar_26_1838_833,stimulus2AFCnew_2IFCnew_2020_Mar_26_1838_834,False,2,2AFCnew,2020_Mar_26_1838,2IFCnew,
2IFCnew,12,0,12,0,-1,1,null,7,-1,Hit,0.21722150000277907,True,False,1,0,1,stimulus2AFCnew_2IFCnew_2020_Mar_26_1838_835,stimulus2AFCnew_2IFCnew_2020_Mar_26_1838_836,False,2,2AFCnew,2020_Mar_26_1838,2IFCnew,
2IFCnew,13,0,13,0,-1,3,null,7,-1,Correct Rejection,0.5172192000318319,False,True,2,0,2,stimulus2AFCnew_2IFCnew_2020_Mar_26_1838_837,stimulus2AFCnew_2IFCnew_2020_Mar_26_1838_838,False,2,2AFCnew,2020_Mar_26_1838,2IFCnew,
2IFCnew,14,0,14,0,-1,1,null,7,-1,Hit,0.3842058000154793,True,False,1,0,1,stimulus2AFCnew_2IFCnew_2020_Mar_26_1838_839,stimulus2AFCnew_2IFCnew_2020_Mar_26_1838_840,False,2,2AFCnew,2020_Mar_26_1838,2IFCnew,
2IFCnew,15,0,15,0,-1,1,null,7,-1,Hit,0.4343729999382049,True,False,1,0,1,stimulus2AFCnew_2IFCnew_2020_Mar_26_1838_841,stimulus2AFCnew_2IFCnew_2020_Mar_26_1838_842,False,2,2AFCnew,2020_Mar_26_1838,2IFCnew,
2IFCnew,16,0,16,0,-1,1,null,7,-1,Hit,0.3850253000855446,True,False,1,0,1,stimulus2AFCnew_2IFCnew_2020_Mar_26_1838_843,stimulus2AFCnew_2IFCnew_2020_Mar_26_1838_844,False,2,2AFCnew,2020_Mar_26_1838,2IFCnew,
2IFCnew,17,0,17,0,-1,1,null,7,-1,Hit,0.38406090007629246,True,False,1,0,1,stimulus2AFCnew_2IFCnew_2020_Mar_26_1838_845,stimulus2AFCnew_2IFCnew_2020_Mar_26_1838_846,False,2,2AFCnew,2020_Mar_26_1838,2IFCnew,
2IFCnew,18,0,18,0,-1,3,null,7,-1,Correct Rejection,0.7507044000085443,False,True,2,0,2,stimulus2AFCnew_2IFCnew_2020_Mar_26_1838_847,stimulus2AFCnew_2IFCnew_2020_Mar_26_1838_848,False,2,2AFCnew,2020_Mar_26_1838,2IFCnew,
2IFCnew,19,0,19,0,-1,4,null,7,-1,Miss,0.683906799997203,True,False,2,0,1,stimulus2AFCnew_2IFCnew_2020_Mar_26_1838_849,stimulus2AFCnew_2IFCnew_2020_Mar_26_1838_850,False,2,2AFCnew,2020_Mar_26_1838,2IFCnew,
2IFCnew,20,0,20,0,-1,1,null,7,-1,Hit,0.39896349993068725,True,False,1,0,1,stimulus2AFCnew_2IFCnew_2020_Mar_26_1838_851,stimulus2AFCnew_2IFCnew_2020_Mar_26_1838_852,False,2,2AFCnew,2020_Mar_26_1838,2IFCnew,
2IFCnew,21,0,21,0,-1,1,null,7,-1,Hit,0.43450219999067485,True,False,1,0,1,stimulus2AFCnew_2IFCnew_2020_Mar_26_1838_853,stimulus2AFCnew_2IFCnew_2020_Mar_26_1838_854,False,2,2AFCnew,2020_Mar_26_1838,2IFCnew,
2IFCnew,22,0,22,0,-1,1,null,7,-1,Hit,0.33254780003335327,True,False,1,0,1,stimulus2AFCnew_2IFCnew_2020_Mar_26_1838_855,stimulus2AFCnew_2IFCnew_2020_Mar_26_1838_856,False,2,2AFCnew,2020_Mar_26_1838,2IFCnew,
2IFCnew,23,0,23,0,-1,1,null,7,-1,Hit,0.36804359999950975,True,False,1,0,1,stimulus2AFCnew_2IFCnew_2020_Mar_26_1838_857,stimulus2AFCnew_2IFCnew_2020_Mar_26_1838_858,False,2,2AFCnew,2020_Mar_26_1838,2IFCnew,
2IFCnew,24,0,24,0,-1,2,null,7,-1,False Alarm,0.4679482000647113,False,True,1,0,2,stimulus2AFCnew_2IFCnew_2020_Mar_26_1838_859,stimulus2AFCnew_2IFCnew_2020_Mar_26_1838_860,False,2,2AFCnew,2020_Mar_26_1838,2IFCnew,
2IFCnew,25,0,25,0,-1,2,null,7,-1,False Alarm,0.3843669999623671,False,True,1,0,2,stimulus2AFCnew_2IFCnew_2020_Mar_26_1838_861,stimulus2AFCnew_2IFCnew_2020_Mar_26_1838_862,False,2,2AFCnew,2020_Mar_26_1838,2IFCnew,
2IFCnew,26,0,26,0,-1,1,null,7,-1,Hit,0.3342088999925181,True,False,1,0,1,stimulus2AFCnew_2IFCnew_2020_Mar_26_1838_863,stimulus2AFCnew_2IFCnew_2020_Mar_26_1838_864,False,2,2AFCnew,2020_Mar_26_1838,2IFCnew,
2IFCnew,27,0,27,0,0.4174406999954954,2,Yes,7,-1,Correct Rejection,0.5851731000002474,False,True,2,1,2,stimulus2AFCnew_2IFCnew_2020_Mar_26_1838_865,stimulus2AFCnew_2IFCnew_2020_Mar_26_1838_866,False,2,2AFCnew,2020_Mar_26_1838,2IFCnew,
2IFCnew,28,0,28,0,0.45074090000707656,5,Yes,7,-1,False Alarm,0.6009325999766588,False,True,1,1,2,stimulus2AFCnew_2IFCnew_2020_Mar_26_1838_867,stimulus2AFCnew_2IFCnew_2020_Mar_26_1838_868,False,2,2AFCnew,2020_Mar_26_1838,2IFCnew,
2IFCnew,29,0,29,0,-1,1,null,7,-1,Hit,0.3674413999542594,True,False,1,0,1,stimulus2AFCnew_2IFCnew_2020_Mar_26_1838_869,stimulus2AFCnew_2IFCnew_2020_Mar_26_1838_870,False,2,2AFCnew,2020_Mar_26_1838,2IFCnew,
2IFCnew,30,0,30,0,-1,1,null,7,-1,Hit,0.4147390000289306,True,False,1,0,1,stimulus2AFCnew_2IFCnew_2020_Mar_26_1838_871,stimulus2AFCnew_2IFCnew_2020_Mar_26_1838_872,False,2,2AFCnew,2020_Mar_26_1838,2IFCnew,
2IFCnew,31,0,31,0,-1,3,null,7,-1,Correct Rejection,0.46858440001960844,False,True,2,0,2,stimulus2AFCnew_2IFCnew_2020_Mar_26_1838_873,stimulus2AFCnew_2IFCnew_2020_Mar_26_1838_874,False,2,2AFCnew,2020_Mar_26_1838,2IFCnew,
2IFCnew,32,0,32,0,-1,1,null,7,-1,Hit,0.36686680000275373,True,False,1,0,1,stimulus2AFCnew_2IFCnew_2020_Mar_26_1838_875,stimulus2AFCnew_2IFCnew_2020_Mar_26_1838_876,False,2,2AFCnew,2020_Mar_26_1838,2IFCnew,
2IFCnew,33,0,33,0,-1,3,null,7,-1,Correct Rejection,0.400632300064899,False,True,2,0,2,stimulus2AFCnew_2IFCnew_2020_Mar_26_1838_877,stimulus2AFCnew_2IFCnew_2020_Mar_26_1838_878,False,2,2AFCnew,2020_Mar_26_1838,2IFCnew,
2IFCnew,34,0,34,0,0.1676539999898523,5,Yes,7,-1,False Alarm,0.35274500004015863,False,True,1,1,2,stimulus2AFCnew_2IFCnew_2020_Mar_26_1838_879,stimulus2AFCnew_2IFCnew_2020_Mar_26_1838_880,False,2,2AFCnew,2020_Mar_26_1838,2IFCnew,
2IFCnew,35,0,35,0,-1,3,null,7,-1,Correct Rejection,0.4151832000352442,False,True,2,0,2,stimulus2AFCnew_2IFCnew_2020_Mar_26_1838_881,stimulus2AFCnew_2IFCnew_2020_Mar_26_1838_882,False,2,2AFCnew,2020_Mar_26_1838,2IFCnew,
2IFCnew,36,0,36,0,-1,3,null,7,-1,Correct Rejection,0.5369195999810472,False,True,2,0,2,stimulus2AFCnew_2IFCnew_2020_Mar_26_1838_883,stimulus2AFCnew_2IFCnew_2020_Mar_26_1838_884,False,2,2AFCnew,2020_Mar_26_1838,2IFCnew,
2IFCnew,37,0,37,0,-1,2,null,7,-1,False Alarm,0.3522288999520242,False,True,1,0,2,stimulus2AFCnew_2IFCnew_2020_Mar_26_1838_885,stimulus2AFCnew_2IFCnew_2020_Mar_26_1838_886,False,2,2AFCnew,2020_Mar_26_1838,2IFCnew,
2IFCnew,38,0,38,0,-1,0,null,7,-1,No Answer,-1,False,True,0,0,2,stimulus2AFCnew_2IFCnew_2020_Mar_26_1838_887,stimulus2AFCnew_2IFCnew_2020_Mar_26_1838_888,False,2,2AFCnew,2020_Mar_26_1838,2IFCnew,
2IFCnew,39,0,39,0,-1,1,null,7,-1,Hit,0.43593999999575317,True,False,1,0,1,stimulus2AFCnew_2IFCnew_2020_Mar_26_1838_889,stimulus2AFCnew_2IFCnew_2020_Mar_26_1838_890,False,2,2AFCnew,2020_Mar_26_1838,2IFCnew,
2IFCnew,40,0,40,0,-1,3,null,7,-1,Correct Rejection,0.41733979992568493,False,True,2,0,2,stimulus2AFCnew_2IFCnew_2020_Mar_26_1838_891,stimulus2AFCnew_2IFCnew_2020_Mar_26_1838_892,False,2,2AFCnew,2020_Mar_26_1838,2IFCnew,
2IFCnew,41,0,41,0,-1,2,null,7,-1,False Alarm,0.4329130999976769,False,True,1,0,2,stimulus2AFCnew_2IFCnew_2020_Mar_26_1838_893,stimulus2AFCnew_2IFCnew_2020_Mar_26_1838_894,False,2,2AFCnew,2020_Mar_26_1838,2IFCnew,
2IFCnew,42,0,42,0,-1,1,null,7,-1,Hit,0.3187679999973625,True,False,1,0,1,stimulus2AFCnew_2IFCnew_2020_Mar_26_1838_895,stimulus2AFCnew_2IFCnew_2020_Mar_26_1838_896,False,2,2AFCnew,2020_Mar_26_1838,2IFCnew,
2IFCnew,43,0,43,0,0.7516481999773532,2,Yes,7,-1,Correct Rejection,0.33392030000686646,False,True,2,1,2,stimulus2AFCnew_2IFCnew_2020_Mar_26_1838_897,stimulus2AFCnew_2IFCnew_2020_Mar_26_1838_898,False,2,2AFCnew,2020_Mar_26_1838,2IFCnew,
2IFCnew,44,0,44,0,-1,3,null,7,-1,Correct Rejection,0.5837629000889137,False,True,2,0,2,stimulus2AFCnew_2IFCnew_2020_Mar_26_1838_899,stimulus2AFCnew_2IFCnew_2020_Mar_26_1838_900,False,2,2AFCnew,2020_Mar_26_1838,2IFCnew,
2IFCnew,0,0,0,0,-1,3,null,2,-1,Correct Rejection,0.4202270000241697,False,True,2,0,2,stimulus2AFCnew_2IFCnew_2020_Mar_26_1838_901,stimulus2AFCnew_2IFCnew_2020_Mar_26_1838_902,False,2,2AFCnew,2020_Mar_26_1838,2IFCnew,
2IFCnew,1,0,1,0,0.4658017000183463,3,No,2,-1,False Alarm,0.48467000003438443,False,True,1,2,2,stimulus2AFCnew_2IFCnew_2020_Mar_26_1838_903,stimulus2AFCnew_2IFCnew_2020_Mar_26_1838_904,False,2,2AFCnew,2020_Mar_26_1838,2IFCnew,
2IFCnew,2,0,2,0,-1,3,null,2,-1,Correct Rejection,0.66729419992771,False,True,2,0,2,stimulus2AFCnew_2IFCnew_2020_Mar_26_1838_905,stimulus2AFCnew_2IFCnew_2020_Mar_26_1838_906,False,2,2AFCnew,2020_Mar_26_1838,2IFCnew,
2IFCnew,3,0,3,0,-1,4,null,2,-1,Miss,0.4497468000045046,True,False,2,0,1,stimulus2AFCnew_2IFCnew_2020_Mar_26_1838_907,stimulus2AFCnew_2IFCnew_2020_Mar_26_1838_908,False,2,2AFCnew,2020_Mar_26_1838,2IFCnew,
2IFCnew,4,0,4,0,0.23417389998212457,5,Yes,2,-1,False Alarm,0.516668300027959,False,True,1,1,2,stimulus2AFCnew_2IFCnew_2020_Mar_26_1838_909,stimulus2AFCnew_2IFCnew_2020_Mar_26_1838_910,False,2,2AFCnew,2020_Mar_26_1838,2IFCnew,
2IFCnew,5,0,5,0,-1,1,null,2,-1,Hit,0.4341264999238774,True,False,1,0,1,stimulus2AFCnew_2IFCnew_2020_Mar_26_1838_911,stimulus2AFCnew_2IFCnew_2020_Mar_26_1838_912,False,2,2AFCnew,2020_Mar_26_1838,2IFCnew,
2IFCnew,6,0,6,0,-1,2,null,2,-1,False Alarm,0.4340206999331713,False,True,1,0,2,stimulus2AFCnew_2IFCnew_2020_Mar_26_1838_913,stimulus2AFCnew_2IFCnew_2020_Mar_26_1838_914,False,2,2AFCnew,2020_Mar_26_1838,2IFCnew,
2IFCnew,7,0,7,0,0.26743979996535927,5,Yes,2,-1,False Alarm,0.26589849998708814,False,True,1,1,2,stimulus2AFCnew_2IFCnew_2020_Mar_26_1838_915,stimulus2AFCnew_2IFCnew_2020_Mar_26_1838_916,False,2,2AFCnew,2020_Mar_26_1838,2IFCnew,
2IFCnew,8,0,8,0,-1,2,null,2,-1,False Alarm,0.4837636000011116,False,True,1,0,2,stimulus2AFCnew_2IFCnew_2020_Mar_26_1838_917,stimulus2AFCnew_2IFCnew_2020_Mar_26_1838_918,False,2,2AFCnew,2020_Mar_26_1838,2IFCnew,
2IFCnew,9,0,9,0,-1,2,null,2,-1,False Alarm,0.2513798999134451,False,True,1,0,2,stimulus2AFCnew_2IFCnew_2020_Mar_26_1838_919,stimulus2AFCnew_2IFCnew_2020_Mar_26_1838_920,False,2,2AFCnew,2020_Mar_26_1838,2IFCnew,
2IFCnew,10,0,10,0,-1,2,null,2,-1,False Alarm,0.28419499995652586,False,True,1,0,2,stimulus2AFCnew_2IFCnew_2020_Mar_26_1838_921,stimulus2AFCnew_2IFCnew_2020_Mar_26_1838_922,False,2,2AFCnew,2020_Mar_26_1838,2IFCnew,
2IFCnew,11,0,11,0,0.417704000021331,2,Yes,2,-1,Correct Rejection,0.26713439996819943,False,True,2,1,2,stimulus2AFCnew_2IFCnew_2020_Mar_26_1838_923,stimulus2AFCnew_2IFCnew_2020_Mar_26_1838_924,False,2,2AFCnew,2020_Mar_26_1838,2IFCnew,
2IFCnew,12,0,12,0,-1,3,null,2,-1,Correct Rejection,0.784455900080502,False,True,2,0,2,stimulus2AFCnew_2IFCnew_2020_Mar_26_1838_925,stimulus2AFCnew_2IFCnew_2020_Mar_26_1838_926,False,2,2AFCnew,2020_Mar_26_1838,2IFCnew,
2IFCnew,13,0,13,0,-1,1,null,2,-1,Hit,0.36759640008676797,True,False,1,0,1,stimulus2AFCnew_2IFCnew_2020_Mar_26_1838_927,stimulus2AFCnew_2IFCnew_2020_Mar_26_1838_928,False,2,2AFCnew,2020_Mar_26_1838,2IFCnew,
