Task,trials.thisRepN,trials.thisTrialN,trials.thisN,trials.thisIndex,signal_intensity,constant Value,response,Subject_Action,Stimulus_Present,time_response,signal_on_stimuluspos1,signal_on_stimuluspos2,stimulus_name_pos1,stimulus_name_pos2,random_intensity,session,participant,date,expName,
2IFC,0,0,0,0,11.0,-1,c,o,r,0.8528982999996515,False,True,stimulusMax2_2IFC_2020_Feb_17_1220_1,stimulusMax2_2IFC_2020_Feb_17_1220_2,False,1,Max2,2020_Feb_17_1220,2IFC,
2IFC,1,0,1,0,11.0,-1,c,o,r,0.8341647999995985,True,False,stimulusMax2_2IFC_2020_Feb_17_1220_3,stimulusMax2_2IFC_2020_Feb_17_1220_4,False,1,Max2,2020_Feb_17_1220,2IFC,
2IFC,2,0,2,0,11.0,-1,c,o,r,0.6508850000000166,False,True,stimulusMax2_2IFC_2020_Feb_17_1220_5,stimulusMax2_2IFC_2020_Feb_17_1220_6,False,1,Max2,2020_Feb_17_1220,2IFC,
2IFC,3,0,3,0,11.0,-1,w,r,o,0.40125050000006013,False,True,stimulusMax2_2IFC_2020_Feb_17_1220_7,stimulusMax2_2IFC_2020_Feb_17_1220_8,False,1,Max2,2020_Feb_17_1220,2IFC,
2IFC,4,0,4,0,11.0,-1,c,o,r,0.500039999999899,True,False,stimulusMax2_2IFC_2020_Feb_17_1220_9,stimulusMax2_2IFC_2020_Feb_17_1220_10,False,1,Max2,2020_Feb_17_1220,2IFC,
2IFC,5,0,5,0,11.0,-1,c,o,r,0.4520494999997027,True,False,stimulusMax2_2IFC_2020_Feb_17_1220_11,stimulusMax2_2IFC_2020_Feb_17_1220_12,False,1,Max2,2020_Feb_17_1220,2IFC,
2IFC,6,0,6,0,11.0,-1,c,o,r,0.5334483999995427,True,False,stimulusMax2_2IFC_2020_Feb_17_1220_13,stimulusMax2_2IFC_2020_Feb_17_1220_14,False,1,Max2,2020_Feb_17_1220,2IFC,
2IFC,7,0,7,0,11.0,-1,c,o,r,0.6016964000000371,False,True,stimulusMax2_2IFC_2020_Feb_17_1220_15,stimulusMax2_2IFC_2020_Feb_17_1220_16,False,1,Max2,2020_Feb_17_1220,2IFC,
2IFC,8,0,8,0,11.0,-1,c,o,r,0.5680711999993946,False,True,stimulusMax2_2IFC_2020_Feb_17_1220_17,stimulusMax2_2IFC_2020_Feb_17_1220_18,False,1,Max2,2020_Feb_17_1220,2IFC,
2IFC,9,0,9,0,11.0,-1,c,o,r,0.5834587999997893,True,False,stimulusMax2_2IFC_2020_Feb_17_1220_19,stimulusMax2_2IFC_2020_Feb_17_1220_20,False,1,Max2,2020_Feb_17_1220,2IFC,
2IFC,10,0,10,0,11.0,-1,c,o,r,0.38574229999994714,False,True,stimulusMax2_2IFC_2020_Feb_17_1220_21,stimulusMax2_2IFC_2020_Feb_17_1220_22,False,1,Max2,2020_Feb_17_1220,2IFC,
2IFC,11,0,11,0,11.0,-1,c,o,r,0.4010772999999972,False,True,stimulusMax2_2IFC_2020_Feb_17_1220_23,stimulusMax2_2IFC_2020_Feb_17_1220_24,False,1,Max2,2020_Feb_17_1220,2IFC,
2IFC,12,0,12,0,11.0,-1,c,o,r,0.3141193999999814,False,True,stimulusMax2_2IFC_2020_Feb_17_1220_25,stimulusMax2_2IFC_2020_Feb_17_1220_26,False,1,Max2,2020_Feb_17_1220,2IFC,
2IFC,13,0,13,0,11.0,-1,c,o,r,0.5205071000000316,False,True,stimulusMax2_2IFC_2020_Feb_17_1220_27,stimulusMax2_2IFC_2020_Feb_17_1220_28,False,1,Max2,2020_Feb_17_1220,2IFC,
2IFC,14,0,14,0,11.0,-1,c,o,r,0.40176419999988866,False,True,stimulusMax2_2IFC_2020_Feb_17_1220_29,stimulusMax2_2IFC_2020_Feb_17_1220_30,False,1,Max2,2020_Feb_17_1220,2IFC,
2IFC,15,0,15,0,11.0,-1,c,o,r,0.48312329999953363,True,False,stimulusMax2_2IFC_2020_Feb_17_1220_31,stimulusMax2_2IFC_2020_Feb_17_1220_32,False,1,Max2,2020_Feb_17_1220,2IFC,
2IFC,16,0,16,0,11.0,-1,c,o,r,0.5839238999997178,False,True,stimulusMax2_2IFC_2020_Feb_17_1220_33,stimulusMax2_2IFC_2020_Feb_17_1220_34,False,1,Max2,2020_Feb_17_1220,2IFC,
2IFC,17,0,17,0,11.0,-1,c,o,r,0.7027533999998923,False,True,stimulusMax2_2IFC_2020_Feb_17_1220_35,stimulusMax2_2IFC_2020_Feb_17_1220_36,False,1,Max2,2020_Feb_17_1220,2IFC,
2IFC,18,0,18,0,11.0,-1,c,o,r,0.2537499999998545,True,False,stimulusMax2_2IFC_2020_Feb_17_1220_37,stimulusMax2_2IFC_2020_Feb_17_1220_38,False,1,Max2,2020_Feb_17_1220,2IFC,
2IFC,19,0,19,0,11.0,-1,c,o,r,0.4528611000005185,True,False,stimulusMax2_2IFC_2020_Feb_17_1220_39,stimulusMax2_2IFC_2020_Feb_17_1220_40,False,1,Max2,2020_Feb_17_1220,2IFC,
2IFC,20,0,20,0,11.0,-1,c,o,r,0.3679474000000482,False,True,stimulusMax2_2IFC_2020_Feb_17_1220_41,stimulusMax2_2IFC_2020_Feb_17_1220_42,False,1,Max2,2020_Feb_17_1220,2IFC,
2IFC,21,0,21,0,11.0,-1,c,o,r,0.4200263000002451,False,True,stimulusMax2_2IFC_2020_Feb_17_1220_43,stimulusMax2_2IFC_2020_Feb_17_1220_44,False,1,Max2,2020_Feb_17_1220,2IFC,
2IFC,22,0,22,0,11.0,-1,c,o,r,0.4190392000000429,False,True,stimulusMax2_2IFC_2020_Feb_17_1220_45,stimulusMax2_2IFC_2020_Feb_17_1220_46,False,1,Max2,2020_Feb_17_1220,2IFC,
2IFC,23,0,23,0,11.0,-1,c,o,r,0.4179453000006106,True,False,stimulusMax2_2IFC_2020_Feb_17_1220_47,stimulusMax2_2IFC_2020_Feb_17_1220_48,False,1,Max2,2020_Feb_17_1220,2IFC,
2IFC,24,0,24,0,11.0,-1,c,o,r,0.4157441999996081,True,False,stimulusMax2_2IFC_2020_Feb_17_1220_49,stimulusMax2_2IFC_2020_Feb_17_1220_50,False,1,Max2,2020_Feb_17_1220,2IFC,
2IFC,25,0,25,0,11.0,-1,c,o,r,0.2330828999993173,False,True,stimulusMax2_2IFC_2020_Feb_17_1220_51,stimulusMax2_2IFC_2020_Feb_17_1220_52,False,1,Max2,2020_Feb_17_1220,2IFC,
2IFC,26,0,26,0,11.0,-1,c,o,r,0.3826576000001296,False,True,stimulusMax2_2IFC_2020_Feb_17_1220_53,stimulusMax2_2IFC_2020_Feb_17_1220_54,False,1,Max2,2020_Feb_17_1220,2IFC,
2IFC,27,0,27,0,11.0,-1,c,o,r,0.2311599999993632,True,False,stimulusMax2_2IFC_2020_Feb_17_1220_55,stimulusMax2_2IFC_2020_Feb_17_1220_56,False,1,Max2,2020_Feb_17_1220,2IFC,
2IFC,28,0,28,0,11.0,-1,c,o,r,0.649840299999596,False,True,stimulusMax2_2IFC_2020_Feb_17_1220_57,stimulusMax2_2IFC_2020_Feb_17_1220_58,False,1,Max2,2020_Feb_17_1220,2IFC,
2IFC,29,0,29,0,11.0,-1,c,o,r,0.3517954999997528,False,True,stimulusMax2_2IFC_2020_Feb_17_1220_59,stimulusMax2_2IFC_2020_Feb_17_1220_60,False,1,Max2,2020_Feb_17_1220,2IFC,
2IFC,30,0,30,0,11.0,-1,c,o,r,0.1998980999997002,True,False,stimulusMax2_2IFC_2020_Feb_17_1220_61,stimulusMax2_2IFC_2020_Feb_17_1220_62,False,1,Max2,2020_Feb_17_1220,2IFC,
2IFC,31,0,31,0,11.0,-1,c,o,r,0.2865078999993784,False,True,stimulusMax2_2IFC_2020_Feb_17_1220_63,stimulusMax2_2IFC_2020_Feb_17_1220_64,False,1,Max2,2020_Feb_17_1220,2IFC,
2IFC,32,0,32,0,11.0,-1,c,o,r,0.4184130000003279,True,False,stimulusMax2_2IFC_2020_Feb_17_1220_65,stimulusMax2_2IFC_2020_Feb_17_1220_66,False,1,Max2,2020_Feb_17_1220,2IFC,
2IFC,33,0,33,0,11.0,-1,c,o,r,0.33546779999960563,True,False,stimulusMax2_2IFC_2020_Feb_17_1220_67,stimulusMax2_2IFC_2020_Feb_17_1220_68,False,1,Max2,2020_Feb_17_1220,2IFC,
2IFC,34,0,34,0,11.0,-1,c,o,r,0.4510436999999001,True,False,stimulusMax2_2IFC_2020_Feb_17_1220_69,stimulusMax2_2IFC_2020_Feb_17_1220_70,False,1,Max2,2020_Feb_17_1220,2IFC,
2IFC,35,0,35,0,11.0,-1,c,o,r,0.41828239999995276,False,True,stimulusMax2_2IFC_2020_Feb_17_1220_71,stimulusMax2_2IFC_2020_Feb_17_1220_72,False,1,Max2,2020_Feb_17_1220,2IFC,
2IFC,36,0,36,0,11.0,-1,c,o,r,0.38272409999990487,False,True,stimulusMax2_2IFC_2020_Feb_17_1220_73,stimulusMax2_2IFC_2020_Feb_17_1220_74,False,1,Max2,2020_Feb_17_1220,2IFC,
2IFC,37,0,37,0,11.0,-1,c,o,r,0.3678735000003144,True,False,stimulusMax2_2IFC_2020_Feb_17_1220_75,stimulusMax2_2IFC_2020_Feb_17_1220_76,False,1,Max2,2020_Feb_17_1220,2IFC,
2IFC,38,0,38,0,11.0,-1,c,o,r,0.3688752999996723,True,False,stimulusMax2_2IFC_2020_Feb_17_1220_77,stimulusMax2_2IFC_2020_Feb_17_1220_78,False,1,Max2,2020_Feb_17_1220,2IFC,
2IFC,39,0,39,0,11.0,-1,c,o,r,0.3181948999999804,False,True,stimulusMax2_2IFC_2020_Feb_17_1220_79,stimulusMax2_2IFC_2020_Feb_17_1220_80,False,1,Max2,2020_Feb_17_1220,2IFC,
