Task,trials.thisRepN,trials.thisTrialN,trials.thisN,trials.thisIndex,signal_intensity,constant Value,response,Subject_Action,Stimulus_Present,time_response,signal_on_stimuluspos1,signal_on_stimuluspos2,stimulus_name_pos1,stimulus_name_pos2,random_intensity,session,participant,date,expName,
Yes-No Task,0,0,0,0,5,-1,Miss,0,1,0.45112799998605624,True,-1,stimulus_YesNo3_Yes-No Task_2020_Mar_23_1659_1,-1,False,1,YesNo3,2020_Mar_23_1659,Yes-No Task,
Yes-No Task,1,0,1,0,5,-1,Hit,1,1,0.43364959995960817,True,-1,stimulus_YesNo3_Yes-No Task_2020_Mar_23_1659_2,-1,False,1,YesNo3,2020_Mar_23_1659,Yes-No Task,
Yes-No Task,2,0,2,0,5,-1,Correct Rejection,0,0,0.4996427000151016,False,-1,stimulus_YesNo3_Yes-No Task_2020_Mar_23_1659_3,-1,False,1,YesNo3,2020_Mar_23_1659,Yes-No Task,
Yes-No Task,3,0,3,0,5,-1,Hit,1,1,0.551419600029476,True,-1,stimulus_YesNo3_Yes-No Task_2020_Mar_23_1659_4,-1,False,1,YesNo3,2020_Mar_23_1659,Yes-No Task,
Yes-No Task,4,0,4,0,5,-1,Hit,1,1,0.4006264000199735,True,-1,stimulus_YesNo3_Yes-No Task_2020_Mar_23_1659_5,-1,False,1,YesNo3,2020_Mar_23_1659,Yes-No Task,
Yes-No Task,5,0,5,0,5,-1,Correct Rejection,0,0,0.5330777999479324,False,-1,stimulus_YesNo3_Yes-No Task_2020_Mar_23_1659_6,-1,False,1,YesNo3,2020_Mar_23_1659,Yes-No Task,
Yes-No Task,6,0,6,0,5,-1,Correct Rejection,0,0,0.4157446000026539,False,-1,stimulus_YesNo3_Yes-No Task_2020_Mar_23_1659_7,-1,False,1,YesNo3,2020_Mar_23_1659,Yes-No Task,
Yes-No Task,7,0,7,0,5,-1,Miss,0,1,0.43523990001995116,True,-1,stimulus_YesNo3_Yes-No Task_2020_Mar_23_1659_8,-1,False,1,YesNo3,2020_Mar_23_1659,Yes-No Task,
Yes-No Task,8,0,8,0,5,-1,Correct Rejection,0,0,0.5339632999966852,False,-1,stimulus_YesNo3_Yes-No Task_2020_Mar_23_1659_9,-1,False,1,YesNo3,2020_Mar_23_1659,Yes-No Task,
Yes-No Task,9,0,9,0,5,-1,Correct Rejection,0,0,0.4680979000404477,False,-1,stimulus_YesNo3_Yes-No Task_2020_Mar_23_1659_10,-1,False,1,YesNo3,2020_Mar_23_1659,Yes-No Task,
Yes-No Task,10,0,10,0,5,-1,False Alarm,1,0,0.40366830001585186,False,-1,stimulus_YesNo3_Yes-No Task_2020_Mar_23_1659_11,-1,False,1,YesNo3,2020_Mar_23_1659,Yes-No Task,
Yes-No Task,11,0,11,0,5,-1,Correct Rejection,0,0,0.46913250000216067,False,-1,stimulus_YesNo3_Yes-No Task_2020_Mar_23_1659_12,-1,False,1,YesNo3,2020_Mar_23_1659,Yes-No Task,
Yes-No Task,12,0,12,0,5,-1,Correct Rejection,0,0,0.4652176999952644,False,-1,stimulus_YesNo3_Yes-No Task_2020_Mar_23_1659_13,-1,False,1,YesNo3,2020_Mar_23_1659,Yes-No Task,
Yes-No Task,13,0,13,0,5,-1,Hit,1,1,0.4456309999804944,True,-1,stimulus_YesNo3_Yes-No Task_2020_Mar_23_1659_14,-1,False,1,YesNo3,2020_Mar_23_1659,Yes-No Task,
Yes-No Task,14,0,14,0,5,-1,Hit,1,1,0.5018839999684133,True,-1,stimulus_YesNo3_Yes-No Task_2020_Mar_23_1659_15,-1,False,1,YesNo3,2020_Mar_23_1659,Yes-No Task,
Yes-No Task,15,0,15,0,5,-1,False Alarm,1,0,0.46814119996270165,False,-1,stimulus_YesNo3_Yes-No Task_2020_Mar_23_1659_16,-1,False,1,YesNo3,2020_Mar_23_1659,Yes-No Task,
Yes-No Task,16,0,16,0,5,-1,Correct Rejection,0,0,0.468926300003659,False,-1,stimulus_YesNo3_Yes-No Task_2020_Mar_23_1659_17,-1,False,1,YesNo3,2020_Mar_23_1659,Yes-No Task,
Yes-No Task,17,0,17,0,5,-1,Correct Rejection,0,0,0.432286600000225,False,-1,stimulus_YesNo3_Yes-No Task_2020_Mar_23_1659_18,-1,False,1,YesNo3,2020_Mar_23_1659,Yes-No Task,
Yes-No Task,18,0,18,0,5,-1,Miss,0,1,0.46779239998431876,True,-1,stimulus_YesNo3_Yes-No Task_2020_Mar_23_1659_19,-1,False,1,YesNo3,2020_Mar_23_1659,Yes-No Task,
Yes-No Task,19,0,19,0,5,-1,No Answer,2,2,-1,False,-1,stimulus_YesNo3_Yes-No Task_2020_Mar_23_1659_20,-1,False,1,YesNo3,2020_Mar_23_1659,Yes-No Task,
Yes-No Task,20,0,20,0,5,-1,Correct Rejection,0,0,0.28459930000826716,False,-1,stimulus_YesNo3_Yes-No Task_2020_Mar_23_1659_21,-1,False,1,YesNo3,2020_Mar_23_1659,Yes-No Task,
Yes-No Task,21,0,21,0,5,-1,Hit,1,1,0.4346974999643862,True,-1,stimulus_YesNo3_Yes-No Task_2020_Mar_23_1659_22,-1,False,1,YesNo3,2020_Mar_23_1659,Yes-No Task,
Yes-No Task,22,0,22,0,5,-1,Correct Rejection,0,0,0.5008725000079721,False,-1,stimulus_YesNo3_Yes-No Task_2020_Mar_23_1659_23,-1,False,1,YesNo3,2020_Mar_23_1659,Yes-No Task,
Yes-No Task,23,0,23,0,5,-1,Hit,1,1,0.6033389999647625,True,-1,stimulus_YesNo3_Yes-No Task_2020_Mar_23_1659_24,-1,False,1,YesNo3,2020_Mar_23_1659,Yes-No Task,
Yes-No Task,24,0,24,0,5,-1,Correct Rejection,0,0,0.6014004000462592,False,-1,stimulus_YesNo3_Yes-No Task_2020_Mar_23_1659_25,-1,False,1,YesNo3,2020_Mar_23_1659,Yes-No Task,
Yes-No Task,25,0,25,0,5,-1,Miss,0,1,0.4870456999633461,True,-1,stimulus_YesNo3_Yes-No Task_2020_Mar_23_1659_26,-1,False,1,YesNo3,2020_Mar_23_1659,Yes-No Task,
Yes-No Task,26,0,26,0,5,-1,Hit,1,1,0.48485980002442375,True,-1,stimulus_YesNo3_Yes-No Task_2020_Mar_23_1659_27,-1,False,1,YesNo3,2020_Mar_23_1659,Yes-No Task,
Yes-No Task,27,0,27,0,5,-1,Hit,1,1,0.40294910001102835,True,-1,stimulus_YesNo3_Yes-No Task_2020_Mar_23_1659_28,-1,False,1,YesNo3,2020_Mar_23_1659,Yes-No Task,
Yes-No Task,28,0,28,0,5,-1,Hit,1,1,0.5197614000062458,True,-1,stimulus_YesNo3_Yes-No Task_2020_Mar_23_1659_29,-1,False,1,YesNo3,2020_Mar_23_1659,Yes-No Task,
Yes-No Task,29,0,29,0,5,-1,Hit,1,1,0.46662319998722523,True,-1,stimulus_YesNo3_Yes-No Task_2020_Mar_23_1659_30,-1,False,1,YesNo3,2020_Mar_23_1659,Yes-No Task,
Yes-No Task,30,0,30,0,5,-1,Hit,1,1,0.4526071999571286,True,-1,stimulus_YesNo3_Yes-No Task_2020_Mar_23_1659_31,-1,False,1,YesNo3,2020_Mar_23_1659,Yes-No Task,
Yes-No Task,31,0,31,0,5,-1,Hit,1,1,0.4678379999822937,True,-1,stimulus_YesNo3_Yes-No Task_2020_Mar_23_1659_32,-1,False,1,YesNo3,2020_Mar_23_1659,Yes-No Task,
Yes-No Task,32,0,32,0,5,-1,Correct Rejection,0,0,0.3514718000078574,False,-1,stimulus_YesNo3_Yes-No Task_2020_Mar_23_1659_33,-1,False,1,YesNo3,2020_Mar_23_1659,Yes-No Task,
Yes-No Task,33,0,33,0,5,-1,Hit,1,1,0.46822700003394857,True,-1,stimulus_YesNo3_Yes-No Task_2020_Mar_23_1659_34,-1,False,1,YesNo3,2020_Mar_23_1659,Yes-No Task,
Yes-No Task,34,0,34,0,5,-1,Hit,1,1,0.4509525999892503,True,-1,stimulus_YesNo3_Yes-No Task_2020_Mar_23_1659_35,-1,False,1,YesNo3,2020_Mar_23_1659,Yes-No Task,
Yes-No Task,35,0,35,0,5,-1,Miss,0,1,0.40181870001833886,True,-1,stimulus_YesNo3_Yes-No Task_2020_Mar_23_1659_36,-1,False,1,YesNo3,2020_Mar_23_1659,Yes-No Task,
Yes-No Task,36,0,36,0,5,-1,Hit,1,1,0.28533210000023246,True,-1,stimulus_YesNo3_Yes-No Task_2020_Mar_23_1659_37,-1,False,1,YesNo3,2020_Mar_23_1659,Yes-No Task,
Yes-No Task,37,0,37,0,5,-1,Hit,1,1,0.3843545999843627,True,-1,stimulus_YesNo3_Yes-No Task_2020_Mar_23_1659_38,-1,False,1,YesNo3,2020_Mar_23_1659,Yes-No Task,
Yes-No Task,38,0,38,0,5,-1,Hit,1,1,0.433930600003805,True,-1,stimulus_YesNo3_Yes-No Task_2020_Mar_23_1659_39,-1,False,1,YesNo3,2020_Mar_23_1659,Yes-No Task,
Yes-No Task,39,0,39,0,5,-1,Correct Rejection,0,0,0.5344462000066414,False,-1,stimulus_YesNo3_Yes-No Task_2020_Mar_23_1659_40,-1,False,1,YesNo3,2020_Mar_23_1659,Yes-No Task,
Yes-No Task,40,0,40,0,5,-1,Hit,1,1,0.4011064000078477,True,-1,stimulus_YesNo3_Yes-No Task_2020_Mar_23_1659_41,-1,False,1,YesNo3,2020_Mar_23_1659,Yes-No Task,
Yes-No Task,41,0,41,0,5,-1,Hit,1,1,0.3841847999719903,True,-1,stimulus_YesNo3_Yes-No Task_2020_Mar_23_1659_42,-1,False,1,YesNo3,2020_Mar_23_1659,Yes-No Task,
Yes-No Task,42,0,42,0,5,-1,Correct Rejection,0,0,0.40274459996726364,False,-1,stimulus_YesNo3_Yes-No Task_2020_Mar_23_1659_43,-1,False,1,YesNo3,2020_Mar_23_1659,Yes-No Task,
Yes-No Task,43,0,43,0,5,-1,Correct Rejection,0,0,0.4169822999974713,False,-1,stimulus_YesNo3_Yes-No Task_2020_Mar_23_1659_44,-1,False,1,YesNo3,2020_Mar_23_1659,Yes-No Task,
Yes-No Task,44,0,44,0,5,-1,False Alarm,1,0,0.36548090004362166,False,-1,stimulus_YesNo3_Yes-No Task_2020_Mar_23_1659_45,-1,False,1,YesNo3,2020_Mar_23_1659,Yes-No Task,
Yes-No Task,0,0,0,0,11,-1,Correct Rejection,0,0,0.5855420000152662,False,-1,stimulus_YesNo3_Yes-No Task_2020_Mar_23_1659_46,-1,False,1,YesNo3,2020_Mar_23_1659,Yes-No Task,
Yes-No Task,1,0,1,0,11,-1,Correct Rejection,0,0,0.5195477999513969,False,-1,stimulus_YesNo3_Yes-No Task_2020_Mar_23_1659_47,-1,False,1,YesNo3,2020_Mar_23_1659,Yes-No Task,
Yes-No Task,2,0,2,0,11,-1,Correct Rejection,0,0,0.5185625000158325,False,-1,stimulus_YesNo3_Yes-No Task_2020_Mar_23_1659_48,-1,False,1,YesNo3,2020_Mar_23_1659,Yes-No Task,
Yes-No Task,3,0,3,0,11,-1,Hit,1,1,0.4506584999617189,True,-1,stimulus_YesNo3_Yes-No Task_2020_Mar_23_1659_49,-1,False,1,YesNo3,2020_Mar_23_1659,Yes-No Task,
Yes-No Task,4,0,4,0,11,-1,Correct Rejection,0,0,0.51602300000377,False,-1,stimulus_YesNo3_Yes-No Task_2020_Mar_23_1659_50,-1,False,1,YesNo3,2020_Mar_23_1659,Yes-No Task,
Yes-No Task,5,0,5,0,11,-1,Correct Rejection,0,0,0.4684988000080921,False,-1,stimulus_YesNo3_Yes-No Task_2020_Mar_23_1659_51,-1,False,1,YesNo3,2020_Mar_23_1659,Yes-No Task,
Yes-No Task,6,0,6,0,11,-1,Hit,1,1,0.4505407999968156,True,-1,stimulus_YesNo3_Yes-No Task_2020_Mar_23_1659_52,-1,False,1,YesNo3,2020_Mar_23_1659,Yes-No Task,
Yes-No Task,7,0,7,0,11,-1,Hit,1,1,0.45332089997828007,True,-1,stimulus_YesNo3_Yes-No Task_2020_Mar_23_1659_53,-1,False,1,YesNo3,2020_Mar_23_1659,Yes-No Task,
Yes-No Task,8,0,8,0,11,-1,Correct Rejection,0,0,0.48513019998790696,False,-1,stimulus_YesNo3_Yes-No Task_2020_Mar_23_1659_54,-1,False,1,YesNo3,2020_Mar_23_1659,Yes-No Task,
Yes-No Task,9,0,9,0,11,-1,Correct Rejection,0,0,0.46961490000830963,False,-1,stimulus_YesNo3_Yes-No Task_2020_Mar_23_1659_55,-1,False,1,YesNo3,2020_Mar_23_1659,Yes-No Task,
Yes-No Task,10,0,10,0,11,-1,Hit,1,1,0.3189799999818206,True,-1,stimulus_YesNo3_Yes-No Task_2020_Mar_23_1659_56,-1,False,1,YesNo3,2020_Mar_23_1659,Yes-No Task,
Yes-No Task,11,0,11,0,11,-1,Correct Rejection,0,0,0.33489719999488443,False,-1,stimulus_YesNo3_Yes-No Task_2020_Mar_23_1659_57,-1,False,1,YesNo3,2020_Mar_23_1659,Yes-No Task,
Yes-No Task,12,0,12,0,11,-1,Correct Rejection,0,0,0.4700197000056505,False,-1,stimulus_YesNo3_Yes-No Task_2020_Mar_23_1659_58,-1,False,1,YesNo3,2020_Mar_23_1659,Yes-No Task,
Yes-No Task,13,0,13,0,11,-1,Hit,1,1,0.45086199999786913,True,-1,stimulus_YesNo3_Yes-No Task_2020_Mar_23_1659_59,-1,False,1,YesNo3,2020_Mar_23_1659,Yes-No Task,
Yes-No Task,14,0,14,0,11,-1,Correct Rejection,0,0,0.5347523000091314,False,-1,stimulus_YesNo3_Yes-No Task_2020_Mar_23_1659_60,-1,False,1,YesNo3,2020_Mar_23_1659,Yes-No Task,
Yes-No Task,15,0,15,0,11,-1,Correct Rejection,0,0,0.4674200000008568,False,-1,stimulus_YesNo3_Yes-No Task_2020_Mar_23_1659_61,-1,False,1,YesNo3,2020_Mar_23_1659,Yes-No Task,
Yes-No Task,16,0,16,0,11,-1,Correct Rejection,0,0,0.4179780000122264,False,-1,stimulus_YesNo3_Yes-No Task_2020_Mar_23_1659_62,-1,False,1,YesNo3,2020_Mar_23_1659,Yes-No Task,
Yes-No Task,17,0,17,0,11,-1,Hit,1,1,0.36858250002842396,True,-1,stimulus_YesNo3_Yes-No Task_2020_Mar_23_1659_63,-1,False,1,YesNo3,2020_Mar_23_1659,Yes-No Task,
Yes-No Task,18,0,18,0,11,-1,Correct Rejection,0,0,0.35124839999480173,False,-1,stimulus_YesNo3_Yes-No Task_2020_Mar_23_1659_64,-1,False,1,YesNo3,2020_Mar_23_1659,Yes-No Task,
Yes-No Task,19,0,19,0,11,-1,Miss,0,1,0.35209100000793114,True,-1,stimulus_YesNo3_Yes-No Task_2020_Mar_23_1659_65,-1,False,1,YesNo3,2020_Mar_23_1659,Yes-No Task,
Yes-No Task,20,0,20,0,11,-1,Correct Rejection,0,0,0.43769009999232367,False,-1,stimulus_YesNo3_Yes-No Task_2020_Mar_23_1659_66,-1,False,1,YesNo3,2020_Mar_23_1659,Yes-No Task,
Yes-No Task,21,0,21,0,11,-1,Hit,1,1,0.4167124999803491,True,-1,stimulus_YesNo3_Yes-No Task_2020_Mar_23_1659_67,-1,False,1,YesNo3,2020_Mar_23_1659,Yes-No Task,
Yes-No Task,22,0,22,0,11,-1,Hit,1,1,0.43476600002031773,True,-1,stimulus_YesNo3_Yes-No Task_2020_Mar_23_1659_68,-1,False,1,YesNo3,2020_Mar_23_1659,Yes-No Task,
Yes-No Task,23,0,23,0,11,-1,Correct Rejection,0,0,0.40083970001433045,False,-1,stimulus_YesNo3_Yes-No Task_2020_Mar_23_1659_69,-1,False,1,YesNo3,2020_Mar_23_1659,Yes-No Task,
Yes-No Task,24,0,24,0,11,-1,Correct Rejection,0,0,0.3513010999886319,False,-1,stimulus_YesNo3_Yes-No Task_2020_Mar_23_1659_70,-1,False,1,YesNo3,2020_Mar_23_1659,Yes-No Task,
Yes-No Task,25,0,25,0,11,-1,Miss,0,1,0.35101069998927414,True,-1,stimulus_YesNo3_Yes-No Task_2020_Mar_23_1659_71,-1,False,1,YesNo3,2020_Mar_23_1659,Yes-No Task,
Yes-No Task,26,0,26,0,11,-1,Correct Rejection,0,0,0.5507560999831185,False,-1,stimulus_YesNo3_Yes-No Task_2020_Mar_23_1659_72,-1,False,1,YesNo3,2020_Mar_23_1659,Yes-No Task,
Yes-No Task,27,0,27,0,11,-1,Correct Rejection,0,0,0.8315948999952525,False,-1,stimulus_YesNo3_Yes-No Task_2020_Mar_23_1659_73,-1,False,1,YesNo3,2020_Mar_23_1659,Yes-No Task,
Yes-No Task,28,0,28,0,11,-1,False Alarm,1,0,0.4340781000209972,False,-1,stimulus_YesNo3_Yes-No Task_2020_Mar_23_1659_74,-1,False,1,YesNo3,2020_Mar_23_1659,Yes-No Task,
Yes-No Task,29,0,29,0,11,-1,Correct Rejection,0,0,0.4687165000359528,False,-1,stimulus_YesNo3_Yes-No Task_2020_Mar_23_1659_75,-1,False,1,YesNo3,2020_Mar_23_1659,Yes-No Task,
Yes-No Task,30,0,30,0,11,-1,Hit,1,1,0.46856820001266897,True,-1,stimulus_YesNo3_Yes-No Task_2020_Mar_23_1659_76,-1,False,1,YesNo3,2020_Mar_23_1659,Yes-No Task,
Yes-No Task,31,0,31,0,11,-1,Hit,1,1,0.3846147999865934,True,-1,stimulus_YesNo3_Yes-No Task_2020_Mar_23_1659_77,-1,False,1,YesNo3,2020_Mar_23_1659,Yes-No Task,
Yes-No Task,32,0,32,0,11,-1,Hit,1,1,0.41448530001798645,True,-1,stimulus_YesNo3_Yes-No Task_2020_Mar_23_1659_78,-1,False,1,YesNo3,2020_Mar_23_1659,Yes-No Task,
Yes-No Task,33,0,33,0,11,-1,Correct Rejection,0,0,0.3190191999892704,False,-1,stimulus_YesNo3_Yes-No Task_2020_Mar_23_1659_79,-1,False,1,YesNo3,2020_Mar_23_1659,Yes-No Task,
Yes-No Task,34,0,34,0,11,-1,Hit,1,1,0.33419409999623895,True,-1,stimulus_YesNo3_Yes-No Task_2020_Mar_23_1659_80,-1,False,1,YesNo3,2020_Mar_23_1659,Yes-No Task,
Yes-No Task,35,0,35,0,11,-1,Correct Rejection,0,0,0.43180040002334863,False,-1,stimulus_YesNo3_Yes-No Task_2020_Mar_23_1659_81,-1,False,1,YesNo3,2020_Mar_23_1659,Yes-No Task,
Yes-No Task,36,0,36,0,11,-1,Correct Rejection,0,0,0.40057330002309754,False,-1,stimulus_YesNo3_Yes-No Task_2020_Mar_23_1659_82,-1,False,1,YesNo3,2020_Mar_23_1659,Yes-No Task,
Yes-No Task,37,0,37,0,11,-1,Hit,1,1,0.3859486000146717,True,-1,stimulus_YesNo3_Yes-No Task_2020_Mar_23_1659_83,-1,False,1,YesNo3,2020_Mar_23_1659,Yes-No Task,
Yes-No Task,38,0,38,0,11,-1,Hit,1,1,0.40178120002383366,True,-1,stimulus_YesNo3_Yes-No Task_2020_Mar_23_1659_84,-1,False,1,YesNo3,2020_Mar_23_1659,Yes-No Task,
Yes-No Task,39,0,39,0,11,-1,Hit,1,1,0.4036078000208363,True,-1,stimulus_YesNo3_Yes-No Task_2020_Mar_23_1659_85,-1,False,1,YesNo3,2020_Mar_23_1659,Yes-No Task,
Yes-No Task,40,0,40,0,11,-1,Hit,1,1,0.31776529998751357,True,-1,stimulus_YesNo3_Yes-No Task_2020_Mar_23_1659_86,-1,False,1,YesNo3,2020_Mar_23_1659,Yes-No Task,
Yes-No Task,41,0,41,0,11,-1,Hit,1,1,0.3166958999936469,True,-1,stimulus_YesNo3_Yes-No Task_2020_Mar_23_1659_87,-1,False,1,YesNo3,2020_Mar_23_1659,Yes-No Task,
Yes-No Task,42,0,42,0,11,-1,Hit,1,1,0.2862161999801174,True,-1,stimulus_YesNo3_Yes-No Task_2020_Mar_23_1659_88,-1,False,1,YesNo3,2020_Mar_23_1659,Yes-No Task,
Yes-No Task,43,0,43,0,11,-1,Hit,1,1,0.28385000000707805,True,-1,stimulus_YesNo3_Yes-No Task_2020_Mar_23_1659_89,-1,False,1,YesNo3,2020_Mar_23_1659,Yes-No Task,
Yes-No Task,44,0,44,0,11,-1,Correct Rejection,0,0,0.5687026999657974,False,-1,stimulus_YesNo3_Yes-No Task_2020_Mar_23_1659_90,-1,False,1,YesNo3,2020_Mar_23_1659,Yes-No Task,
Yes-No Task,0,0,0,0,0,-1,Correct Rejection,0,0,0.41656639997381717,False,-1,stimulus_YesNo3_Yes-No Task_2020_Mar_23_1659_91,-1,False,1,YesNo3,2020_Mar_23_1659,Yes-No Task,
Yes-No Task,1,0,1,0,0,-1,Miss,0,1,0.432964300038293,True,-1,stimulus_YesNo3_Yes-No Task_2020_Mar_23_1659_92,-1,False,1,YesNo3,2020_Mar_23_1659,Yes-No Task,
Yes-No Task,2,0,2,0,0,-1,Hit,1,1,0.4013855999801308,True,-1,stimulus_YesNo3_Yes-No Task_2020_Mar_23_1659_93,-1,False,1,YesNo3,2020_Mar_23_1659,Yes-No Task,
Yes-No Task,3,0,3,0,0,-1,Miss,0,1,0.7188917000312358,True,-1,stimulus_YesNo3_Yes-No Task_2020_Mar_23_1659_94,-1,False,1,YesNo3,2020_Mar_23_1659,Yes-No Task,
Yes-No Task,4,0,4,0,0,-1,Hit,1,1,0.3680877999868244,True,-1,stimulus_YesNo3_Yes-No Task_2020_Mar_23_1659_95,-1,False,1,YesNo3,2020_Mar_23_1659,Yes-No Task,
Yes-No Task,5,0,5,0,0,-1,False Alarm,1,0,0.384358000010252,False,-1,stimulus_YesNo3_Yes-No Task_2020_Mar_23_1659_96,-1,False,1,YesNo3,2020_Mar_23_1659,Yes-No Task,
Yes-No Task,6,0,6,0,0,-1,Miss,0,1,0.6155322000267915,True,-1,stimulus_YesNo3_Yes-No Task_2020_Mar_23_1659_97,-1,False,1,YesNo3,2020_Mar_23_1659,Yes-No Task,
Yes-No Task,7,0,7,0,0,-1,False Alarm,1,0,0.8167015999788418,False,-1,stimulus_YesNo3_Yes-No Task_2020_Mar_23_1659_98,-1,False,1,YesNo3,2020_Mar_23_1659,Yes-No Task,
Yes-No Task,8,0,8,0,0,-1,Miss,0,1,0.2514532000059262,True,-1,stimulus_YesNo3_Yes-No Task_2020_Mar_23_1659_99,-1,False,1,YesNo3,2020_Mar_23_1659,Yes-No Task,
Yes-No Task,9,0,9,0,0,-1,Correct Rejection,0,0,0.3674328000051901,False,-1,stimulus_YesNo3_Yes-No Task_2020_Mar_23_1659_100,-1,False,1,YesNo3,2020_Mar_23_1659,Yes-No Task,
Yes-No Task,10,0,10,0,0,-1,Miss,0,1,0.31647969997720793,True,-1,stimulus_YesNo3_Yes-No Task_2020_Mar_23_1659_101,-1,False,1,YesNo3,2020_Mar_23_1659,Yes-No Task,
Yes-No Task,11,0,11,0,0,-1,Correct Rejection,0,0,0.5847125999862328,False,-1,stimulus_YesNo3_Yes-No Task_2020_Mar_23_1659_102,-1,False,1,YesNo3,2020_Mar_23_1659,Yes-No Task,
Yes-No Task,12,0,12,0,0,-1,Miss,0,1,0.4514602000126615,True,-1,stimulus_YesNo3_Yes-No Task_2020_Mar_23_1659_103,-1,False,1,YesNo3,2020_Mar_23_1659,Yes-No Task,
Yes-No Task,13,0,13,0,0,-1,Miss,0,1,0.5172210999880917,True,-1,stimulus_YesNo3_Yes-No Task_2020_Mar_23_1659_104,-1,False,1,YesNo3,2020_Mar_23_1659,Yes-No Task,
Yes-No Task,14,0,14,0,0,-1,False Alarm,1,0,0.7681463999906555,False,-1,stimulus_YesNo3_Yes-No Task_2020_Mar_23_1659_105,-1,False,1,YesNo3,2020_Mar_23_1659,Yes-No Task,
Yes-No Task,15,0,15,0,0,-1,Miss,0,1,0.5347595000057481,True,-1,stimulus_YesNo3_Yes-No Task_2020_Mar_23_1659_106,-1,False,1,YesNo3,2020_Mar_23_1659,Yes-No Task,
Yes-No Task,16,0,16,0,0,-1,Miss,0,1,0.48476409999420866,True,-1,stimulus_YesNo3_Yes-No Task_2020_Mar_23_1659_107,-1,False,1,YesNo3,2020_Mar_23_1659,Yes-No Task,
Yes-No Task,17,0,17,0,0,-1,Correct Rejection,0,0,0.45053239999106154,False,-1,stimulus_YesNo3_Yes-No Task_2020_Mar_23_1659_108,-1,False,1,YesNo3,2020_Mar_23_1659,Yes-No Task,
Yes-No Task,18,0,18,0,0,-1,Miss,0,1,0.6346412000129931,True,-1,stimulus_YesNo3_Yes-No Task_2020_Mar_23_1659_109,-1,False,1,YesNo3,2020_Mar_23_1659,Yes-No Task,
Yes-No Task,19,0,19,0,0,-1,Miss,0,1,0.7013166000251658,True,-1,stimulus_YesNo3_Yes-No Task_2020_Mar_23_1659_110,-1,False,1,YesNo3,2020_Mar_23_1659,Yes-No Task,
Yes-No Task,20,0,20,0,0,-1,Hit,1,1,0.4696223000064492,True,-1,stimulus_YesNo3_Yes-No Task_2020_Mar_23_1659_111,-1,False,1,YesNo3,2020_Mar_23_1659,Yes-No Task,
Yes-No Task,21,0,21,0,0,-1,Correct Rejection,0,0,0.567255700007081,False,-1,stimulus_YesNo3_Yes-No Task_2020_Mar_23_1659_112,-1,False,1,YesNo3,2020_Mar_23_1659,Yes-No Task,
Yes-No Task,22,0,22,0,0,-1,False Alarm,1,0,0.4181215999997221,False,-1,stimulus_YesNo3_Yes-No Task_2020_Mar_23_1659_113,-1,False,1,YesNo3,2020_Mar_23_1659,Yes-No Task,
Yes-No Task,23,0,23,0,0,-1,Correct Rejection,0,0,0.2175528000225313,False,-1,stimulus_YesNo3_Yes-No Task_2020_Mar_23_1659_114,-1,False,1,YesNo3,2020_Mar_23_1659,Yes-No Task,
Yes-No Task,24,0,24,0,0,-1,Correct Rejection,0,0,0.3190335999825038,False,-1,stimulus_YesNo3_Yes-No Task_2020_Mar_23_1659_115,-1,False,1,YesNo3,2020_Mar_23_1659,Yes-No Task,
Yes-No Task,25,0,25,0,0,-1,Miss,0,1,0.30132020002929494,True,-1,stimulus_YesNo3_Yes-No Task_2020_Mar_23_1659_116,-1,False,1,YesNo3,2020_Mar_23_1659,Yes-No Task,
Yes-No Task,26,0,26,0,0,-1,Correct Rejection,0,0,0.5348444000119343,False,-1,stimulus_YesNo3_Yes-No Task_2020_Mar_23_1659_117,-1,False,1,YesNo3,2020_Mar_23_1659,Yes-No Task,
Yes-No Task,27,0,27,0,0,-1,Miss,0,1,0.5186977999983355,True,-1,stimulus_YesNo3_Yes-No Task_2020_Mar_23_1659_118,-1,False,1,YesNo3,2020_Mar_23_1659,Yes-No Task,
Yes-No Task,28,0,28,0,0,-1,Correct Rejection,0,0,0.48539960000198334,False,-1,stimulus_YesNo3_Yes-No Task_2020_Mar_23_1659_119,-1,False,1,YesNo3,2020_Mar_23_1659,Yes-No Task,
Yes-No Task,29,0,29,0,0,-1,Miss,0,1,0.5534352999529801,True,-1,stimulus_YesNo3_Yes-No Task_2020_Mar_23_1659_120,-1,False,1,YesNo3,2020_Mar_23_1659,Yes-No Task,
Yes-No Task,30,0,30,0,0,-1,Miss,0,1,0.4343310000258498,True,-1,stimulus_YesNo3_Yes-No Task_2020_Mar_23_1659_121,-1,False,1,YesNo3,2020_Mar_23_1659,Yes-No Task,
Yes-No Task,31,0,31,0,0,-1,Miss,0,1,0.5008410000009462,True,-1,stimulus_YesNo3_Yes-No Task_2020_Mar_23_1659_122,-1,False,1,YesNo3,2020_Mar_23_1659,Yes-No Task,
Yes-No Task,32,0,32,0,0,-1,Correct Rejection,0,0,0.7203179000061937,False,-1,stimulus_YesNo3_Yes-No Task_2020_Mar_23_1659_123,-1,False,1,YesNo3,2020_Mar_23_1659,Yes-No Task,
Yes-No Task,33,0,33,0,0,-1,Miss,0,1,0.6183151999721304,True,-1,stimulus_YesNo3_Yes-No Task_2020_Mar_23_1659_124,-1,False,1,YesNo3,2020_Mar_23_1659,Yes-No Task,
Yes-No Task,34,0,34,0,0,-1,Miss,0,1,0.7178125999635085,True,-1,stimulus_YesNo3_Yes-No Task_2020_Mar_23_1659_125,-1,False,1,YesNo3,2020_Mar_23_1659,Yes-No Task,
Yes-No Task,35,0,35,0,0,-1,Miss,0,1,0.5178097999887541,True,-1,stimulus_YesNo3_Yes-No Task_2020_Mar_23_1659_126,-1,False,1,YesNo3,2020_Mar_23_1659,Yes-No Task,
Yes-No Task,36,0,36,0,0,-1,Correct Rejection,0,0,0.6038511999649927,False,-1,stimulus_YesNo3_Yes-No Task_2020_Mar_23_1659_127,-1,False,1,YesNo3,2020_Mar_23_1659,Yes-No Task,
Yes-No Task,37,0,37,0,0,-1,Miss,0,1,0.5850891000009142,True,-1,stimulus_YesNo3_Yes-No Task_2020_Mar_23_1659_128,-1,False,1,YesNo3,2020_Mar_23_1659,Yes-No Task,
Yes-No Task,38,0,38,0,0,-1,Hit,1,1,0.5684482000069693,True,-1,stimulus_YesNo3_Yes-No Task_2020_Mar_23_1659_129,-1,False,1,YesNo3,2020_Mar_23_1659,Yes-No Task,
Yes-No Task,39,0,39,0,0,-1,False Alarm,1,0,0.4345070000272244,False,-1,stimulus_YesNo3_Yes-No Task_2020_Mar_23_1659_130,-1,False,1,YesNo3,2020_Mar_23_1659,Yes-No Task,
Yes-No Task,40,0,40,0,0,-1,Correct Rejection,0,0,0.49908969999523833,False,-1,stimulus_YesNo3_Yes-No Task_2020_Mar_23_1659_131,-1,False,1,YesNo3,2020_Mar_23_1659,Yes-No Task,
Yes-No Task,41,0,41,0,0,-1,Miss,0,1,0.5011918000527658,True,-1,stimulus_YesNo3_Yes-No Task_2020_Mar_23_1659_132,-1,False,1,YesNo3,2020_Mar_23_1659,Yes-No Task,
Yes-No Task,42,0,42,0,0,-1,False Alarm,1,0,0.5173713000258431,False,-1,stimulus_YesNo3_Yes-No Task_2020_Mar_23_1659_133,-1,False,1,YesNo3,2020_Mar_23_1659,Yes-No Task,
Yes-No Task,43,0,43,0,0,-1,Miss,0,1,0.43447109998669475,True,-1,stimulus_YesNo3_Yes-No Task_2020_Mar_23_1659_134,-1,False,1,YesNo3,2020_Mar_23_1659,Yes-No Task,
Yes-No Task,44,0,44,0,0,-1,Correct Rejection,0,0,0.5011137000401504,False,-1,stimulus_YesNo3_Yes-No Task_2020_Mar_23_1659_135,-1,False,1,YesNo3,2020_Mar_23_1659,Yes-No Task,
Yes-No Task,0,0,0,0,2,-1,Miss,0,1,0.3847957000252791,True,-1,stimulus_YesNo3_Yes-No Task_2020_Mar_23_1659_136,-1,False,1,YesNo3,2020_Mar_23_1659,Yes-No Task,
Yes-No Task,1,0,1,0,2,-1,False Alarm,1,0,0.6184761999757029,False,-1,stimulus_YesNo3_Yes-No Task_2020_Mar_23_1659_137,-1,False,1,YesNo3,2020_Mar_23_1659,Yes-No Task,
Yes-No Task,2,0,2,0,2,-1,Correct Rejection,0,0,0.8014336999622174,False,-1,stimulus_YesNo3_Yes-No Task_2020_Mar_23_1659_138,-1,False,1,YesNo3,2020_Mar_23_1659,Yes-No Task,
Yes-No Task,3,0,3,0,2,-1,Correct Rejection,0,0,0.5520104999886826,False,-1,stimulus_YesNo3_Yes-No Task_2020_Mar_23_1659_139,-1,False,1,YesNo3,2020_Mar_23_1659,Yes-No Task,
Yes-No Task,4,0,4,0,2,-1,Correct Rejection,0,0,0.6010633000405505,False,-1,stimulus_YesNo3_Yes-No Task_2020_Mar_23_1659_140,-1,False,1,YesNo3,2020_Mar_23_1659,Yes-No Task,
Yes-No Task,5,0,5,0,2,-1,Miss,0,1,0.6019520999980159,True,-1,stimulus_YesNo3_Yes-No Task_2020_Mar_23_1659_141,-1,False,1,YesNo3,2020_Mar_23_1659,Yes-No Task,
Yes-No Task,6,0,6,0,2,-1,False Alarm,1,0,0.617525499954354,False,-1,stimulus_YesNo3_Yes-No Task_2020_Mar_23_1659_142,-1,False,1,YesNo3,2020_Mar_23_1659,Yes-No Task,
Yes-No Task,7,0,7,0,2,-1,Hit,1,1,0.3873806999763474,True,-1,stimulus_YesNo3_Yes-No Task_2020_Mar_23_1659_143,-1,False,1,YesNo3,2020_Mar_23_1659,Yes-No Task,
Yes-No Task,8,0,8,0,2,-1,Correct Rejection,0,0,0.45032490004086867,False,-1,stimulus_YesNo3_Yes-No Task_2020_Mar_23_1659_144,-1,False,1,YesNo3,2020_Mar_23_1659,Yes-No Task,
Yes-No Task,9,0,9,0,2,-1,False Alarm,1,0,0.5514770000008866,False,-1,stimulus_YesNo3_Yes-No Task_2020_Mar_23_1659_145,-1,False,1,YesNo3,2020_Mar_23_1659,Yes-No Task,
Yes-No Task,10,0,10,0,2,-1,Hit,1,1,0.6181247999775223,True,-1,stimulus_YesNo3_Yes-No Task_2020_Mar_23_1659_146,-1,False,1,YesNo3,2020_Mar_23_1659,Yes-No Task,
Yes-No Task,11,0,11,0,2,-1,Miss,0,1,0.4866479000193067,True,-1,stimulus_YesNo3_Yes-No Task_2020_Mar_23_1659_147,-1,False,1,YesNo3,2020_Mar_23_1659,Yes-No Task,
Yes-No Task,12,0,12,0,2,-1,Hit,1,1,0.4152979000355117,True,-1,stimulus_YesNo3_Yes-No Task_2020_Mar_23_1659_148,-1,False,1,YesNo3,2020_Mar_23_1659,Yes-No Task,
Yes-No Task,13,0,13,0,2,-1,Correct Rejection,0,0,0.5995982000022195,False,-1,stimulus_YesNo3_Yes-No Task_2020_Mar_23_1659_149,-1,False,1,YesNo3,2020_Mar_23_1659,Yes-No Task,
Yes-No Task,14,0,14,0,2,-1,Correct Rejection,0,0,0.45281899999827147,False,-1,stimulus_YesNo3_Yes-No Task_2020_Mar_23_1659_150,-1,False,1,YesNo3,2020_Mar_23_1659,Yes-No Task,
Yes-No Task,15,0,15,0,2,-1,Correct Rejection,0,0,0.554282900004182,False,-1,stimulus_YesNo3_Yes-No Task_2020_Mar_23_1659_151,-1,False,1,YesNo3,2020_Mar_23_1659,Yes-No Task,
Yes-No Task,16,0,16,0,2,-1,Correct Rejection,0,0,0.4685853000264615,False,-1,stimulus_YesNo3_Yes-No Task_2020_Mar_23_1659_152,-1,False,1,YesNo3,2020_Mar_23_1659,Yes-No Task,
Yes-No Task,17,0,17,0,2,-1,Correct Rejection,0,0,0.38476680003805086,False,-1,stimulus_YesNo3_Yes-No Task_2020_Mar_23_1659_153,-1,False,1,YesNo3,2020_Mar_23_1659,Yes-No Task,
Yes-No Task,18,0,18,0,2,-1,Correct Rejection,0,0,0.40059749997453764,False,-1,stimulus_YesNo3_Yes-No Task_2020_Mar_23_1659_154,-1,False,1,YesNo3,2020_Mar_23_1659,Yes-No Task,
Yes-No Task,19,0,19,0,2,-1,Correct Rejection,0,0,0.4357096999883652,False,-1,stimulus_YesNo3_Yes-No Task_2020_Mar_23_1659_155,-1,False,1,YesNo3,2020_Mar_23_1659,Yes-No Task,
Yes-No Task,20,0,20,0,2,-1,Miss,0,1,0.4187883000122383,True,-1,stimulus_YesNo3_Yes-No Task_2020_Mar_23_1659_156,-1,False,1,YesNo3,2020_Mar_23_1659,Yes-No Task,
Yes-No Task,21,0,21,0,2,-1,False Alarm,1,0,0.43408560001989827,False,-1,stimulus_YesNo3_Yes-No Task_2020_Mar_23_1659_157,-1,False,1,YesNo3,2020_Mar_23_1659,Yes-No Task,
Yes-No Task,22,0,22,0,2,-1,Correct Rejection,0,0,0.436815100023523,False,-1,stimulus_YesNo3_Yes-No Task_2020_Mar_23_1659_158,-1,False,1,YesNo3,2020_Mar_23_1659,Yes-No Task,
Yes-No Task,23,0,23,0,2,-1,Miss,0,1,0.3845158999902196,True,-1,stimulus_YesNo3_Yes-No Task_2020_Mar_23_1659_159,-1,False,1,YesNo3,2020_Mar_23_1659,Yes-No Task,
Yes-No Task,24,0,24,0,2,-1,Miss,0,1,0.49806830001762137,True,-1,stimulus_YesNo3_Yes-No Task_2020_Mar_23_1659_160,-1,False,1,YesNo3,2020_Mar_23_1659,Yes-No Task,
Yes-No Task,25,0,25,0,2,-1,Hit,1,1,0.4517888000118546,True,-1,stimulus_YesNo3_Yes-No Task_2020_Mar_23_1659_161,-1,False,1,YesNo3,2020_Mar_23_1659,Yes-No Task,
Yes-No Task,26,0,26,0,2,-1,False Alarm,1,0,0.469879399985075,False,-1,stimulus_YesNo3_Yes-No Task_2020_Mar_23_1659_162,-1,False,1,YesNo3,2020_Mar_23_1659,Yes-No Task,
Yes-No Task,27,0,27,0,2,-1,Miss,0,1,0.5855255000060424,True,-1,stimulus_YesNo3_Yes-No Task_2020_Mar_23_1659_163,-1,False,1,YesNo3,2020_Mar_23_1659,Yes-No Task,
Yes-No Task,28,0,28,0,2,-1,Correct Rejection,0,0,0.48553359997458756,False,-1,stimulus_YesNo3_Yes-No Task_2020_Mar_23_1659_164,-1,False,1,YesNo3,2020_Mar_23_1659,Yes-No Task,
Yes-No Task,29,0,29,0,2,-1,Correct Rejection,0,0,0.4517447000253014,False,-1,stimulus_YesNo3_Yes-No Task_2020_Mar_23_1659_165,-1,False,1,YesNo3,2020_Mar_23_1659,Yes-No Task,
Yes-No Task,30,0,30,0,2,-1,Correct Rejection,0,0,0.3509324000333436,False,-1,stimulus_YesNo3_Yes-No Task_2020_Mar_23_1659_166,-1,False,1,YesNo3,2020_Mar_23_1659,Yes-No Task,
Yes-No Task,31,0,31,0,2,-1,Correct Rejection,0,0,0.5683024000027217,False,-1,stimulus_YesNo3_Yes-No Task_2020_Mar_23_1659_167,-1,False,1,YesNo3,2020_Mar_23_1659,Yes-No Task,
Yes-No Task,32,0,32,0,2,-1,Miss,0,1,0.35379359999205917,True,-1,stimulus_YesNo3_Yes-No Task_2020_Mar_23_1659_168,-1,False,1,YesNo3,2020_Mar_23_1659,Yes-No Task,
Yes-No Task,33,0,33,0,2,-1,Correct Rejection,0,0,0.3834777000010945,False,-1,stimulus_YesNo3_Yes-No Task_2020_Mar_23_1659_169,-1,False,1,YesNo3,2020_Mar_23_1659,Yes-No Task,
Yes-No Task,34,0,34,0,2,-1,Miss,0,1,0.5846405000193045,True,-1,stimulus_YesNo3_Yes-No Task_2020_Mar_23_1659_170,-1,False,1,YesNo3,2020_Mar_23_1659,Yes-No Task,
Yes-No Task,35,0,35,0,2,-1,Correct Rejection,0,0,0.45132610003929585,False,-1,stimulus_YesNo3_Yes-No Task_2020_Mar_23_1659_171,-1,False,1,YesNo3,2020_Mar_23_1659,Yes-No Task,
Yes-No Task,36,0,36,0,2,-1,Miss,0,1,0.36673639999935403,True,-1,stimulus_YesNo3_Yes-No Task_2020_Mar_23_1659_172,-1,False,1,YesNo3,2020_Mar_23_1659,Yes-No Task,
Yes-No Task,37,0,37,0,2,-1,False Alarm,1,0,0.21651930001098663,False,-1,stimulus_YesNo3_Yes-No Task_2020_Mar_23_1659_173,-1,False,1,YesNo3,2020_Mar_23_1659,Yes-No Task,
Yes-No Task,38,0,38,0,2,-1,Correct Rejection,0,0,0.23459619999630377,False,-1,stimulus_YesNo3_Yes-No Task_2020_Mar_23_1659_174,-1,False,1,YesNo3,2020_Mar_23_1659,Yes-No Task,
Yes-No Task,39,0,39,0,2,-1,Miss,0,1,0.38637299998663366,True,-1,stimulus_YesNo3_Yes-No Task_2020_Mar_23_1659_175,-1,False,1,YesNo3,2020_Mar_23_1659,Yes-No Task,
Yes-No Task,40,0,40,0,2,-1,Miss,0,1,0.4345511999563314,True,-1,stimulus_YesNo3_Yes-No Task_2020_Mar_23_1659_176,-1,False,1,YesNo3,2020_Mar_23_1659,Yes-No Task,
Yes-No Task,41,0,41,0,2,-1,Hit,1,1,0.4009772000135854,True,-1,stimulus_YesNo3_Yes-No Task_2020_Mar_23_1659_177,-1,False,1,YesNo3,2020_Mar_23_1659,Yes-No Task,
Yes-No Task,42,0,42,0,2,-1,Hit,1,1,0.5015221000066958,True,-1,stimulus_YesNo3_Yes-No Task_2020_Mar_23_1659_178,-1,False,1,YesNo3,2020_Mar_23_1659,Yes-No Task,
Yes-No Task,43,0,43,0,2,-1,False Alarm,1,0,0.3353654000093229,False,-1,stimulus_YesNo3_Yes-No Task_2020_Mar_23_1659_179,-1,False,1,YesNo3,2020_Mar_23_1659,Yes-No Task,
Yes-No Task,44,0,44,0,2,-1,Miss,0,1,0.24955140001839027,True,-1,stimulus_YesNo3_Yes-No Task_2020_Mar_23_1659_180,-1,False,1,YesNo3,2020_Mar_23_1659,Yes-No Task,
Yes-No Task,0,0,0,0,10,-1,Correct Rejection,0,0,0.3507159000146203,False,-1,stimulus_YesNo3_Yes-No Task_2020_Mar_23_1659_181,-1,False,1,YesNo3,2020_Mar_23_1659,Yes-No Task,
Yes-No Task,1,0,1,0,10,-1,Hit,1,1,0.5175337999826297,True,-1,stimulus_YesNo3_Yes-No Task_2020_Mar_23_1659_182,-1,False,1,YesNo3,2020_Mar_23_1659,Yes-No Task,
Yes-No Task,2,0,2,0,10,-1,Correct Rejection,0,0,0.31908190000103787,False,-1,stimulus_YesNo3_Yes-No Task_2020_Mar_23_1659_183,-1,False,1,YesNo3,2020_Mar_23_1659,Yes-No Task,
Yes-No Task,3,0,3,0,10,-1,Hit,1,1,0.2166725000133738,True,-1,stimulus_YesNo3_Yes-No Task_2020_Mar_23_1659_184,-1,False,1,YesNo3,2020_Mar_23_1659,Yes-No Task,
Yes-No Task,4,0,4,0,10,-1,Miss,0,1,0.252267700037919,True,-1,stimulus_YesNo3_Yes-No Task_2020_Mar_23_1659_185,-1,False,1,YesNo3,2020_Mar_23_1659,Yes-No Task,
Yes-No Task,5,0,5,0,10,-1,Hit,1,1,0.4857699999702163,True,-1,stimulus_YesNo3_Yes-No Task_2020_Mar_23_1659_186,-1,False,1,YesNo3,2020_Mar_23_1659,Yes-No Task,
Yes-No Task,6,0,6,0,10,-1,Hit,1,1,0.3526461999863386,True,-1,stimulus_YesNo3_Yes-No Task_2020_Mar_23_1659_187,-1,False,1,YesNo3,2020_Mar_23_1659,Yes-No Task,
Yes-No Task,7,0,7,0,10,-1,Correct Rejection,0,0,0.2845079000107944,False,-1,stimulus_YesNo3_Yes-No Task_2020_Mar_23_1659_188,-1,False,1,YesNo3,2020_Mar_23_1659,Yes-No Task,
Yes-No Task,8,0,8,0,10,-1,Correct Rejection,0,0,0.31663319998187944,False,-1,stimulus_YesNo3_Yes-No Task_2020_Mar_23_1659_189,-1,False,1,YesNo3,2020_Mar_23_1659,Yes-No Task,
Yes-No Task,9,0,9,0,10,-1,Correct Rejection,0,0,0.3522366000106558,False,-1,stimulus_YesNo3_Yes-No Task_2020_Mar_23_1659_190,-1,False,1,YesNo3,2020_Mar_23_1659,Yes-No Task,
Yes-No Task,10,0,10,0,10,-1,Hit,1,1,0.4019721000222489,True,-1,stimulus_YesNo3_Yes-No Task_2020_Mar_23_1659_191,-1,False,1,YesNo3,2020_Mar_23_1659,Yes-No Task,
Yes-No Task,11,0,11,0,10,-1,Miss,0,1,0.25093389995163307,True,-1,stimulus_YesNo3_Yes-No Task_2020_Mar_23_1659_192,-1,False,1,YesNo3,2020_Mar_23_1659,Yes-No Task,
Yes-No Task,12,0,12,0,10,-1,False Alarm,1,0,0.23076889995718375,False,-1,stimulus_YesNo3_Yes-No Task_2020_Mar_23_1659_193,-1,False,1,YesNo3,2020_Mar_23_1659,Yes-No Task,
Yes-No Task,13,0,13,0,10,-1,Correct Rejection,0,0,0.7349454000359401,False,-1,stimulus_YesNo3_Yes-No Task_2020_Mar_23_1659_194,-1,False,1,YesNo3,2020_Mar_23_1659,Yes-No Task,
Yes-No Task,14,0,14,0,10,-1,Miss,0,1,0.2711023999727331,True,-1,stimulus_YesNo3_Yes-No Task_2020_Mar_23_1659_195,-1,False,1,YesNo3,2020_Mar_23_1659,Yes-No Task,
Yes-No Task,15,0,15,0,10,-1,No Answer,2,2,-1,False,-1,stimulus_YesNo3_Yes-No Task_2020_Mar_23_1659_196,-1,False,1,YesNo3,2020_Mar_23_1659,Yes-No Task,
Yes-No Task,16,0,16,0,10,-1,Hit,1,1,0.4506833999766968,True,-1,stimulus_YesNo3_Yes-No Task_2020_Mar_23_1659_197,-1,False,1,YesNo3,2020_Mar_23_1659,Yes-No Task,
Yes-No Task,17,0,17,0,10,-1,Correct Rejection,0,0,0.43538229999830946,False,-1,stimulus_YesNo3_Yes-No Task_2020_Mar_23_1659_198,-1,False,1,YesNo3,2020_Mar_23_1659,Yes-No Task,
Yes-No Task,18,0,18,0,10,-1,Hit,1,1,0.4848001000354998,True,-1,stimulus_YesNo3_Yes-No Task_2020_Mar_23_1659_199,-1,False,1,YesNo3,2020_Mar_23_1659,Yes-No Task,
Yes-No Task,19,0,19,0,10,-1,Hit,1,1,0.4186960000079125,True,-1,stimulus_YesNo3_Yes-No Task_2020_Mar_23_1659_200,-1,False,1,YesNo3,2020_Mar_23_1659,Yes-No Task,
Yes-No Task,20,0,20,0,10,-1,False Alarm,1,0,0.31956370000261813,False,-1,stimulus_YesNo3_Yes-No Task_2020_Mar_23_1659_201,-1,False,1,YesNo3,2020_Mar_23_1659,Yes-No Task,
Yes-No Task,21,0,21,0,10,-1,Correct Rejection,0,0,0.200803299958352,False,-1,stimulus_YesNo3_Yes-No Task_2020_Mar_23_1659_202,-1,False,1,YesNo3,2020_Mar_23_1659,Yes-No Task,
Yes-No Task,22,0,22,0,10,-1,Correct Rejection,0,0,0.6682430999935605,False,-1,stimulus_YesNo3_Yes-No Task_2020_Mar_23_1659_203,-1,False,1,YesNo3,2020_Mar_23_1659,Yes-No Task,
Yes-No Task,23,0,23,0,10,-1,Correct Rejection,0,0,0.6027350000222214,False,-1,stimulus_YesNo3_Yes-No Task_2020_Mar_23_1659_204,-1,False,1,YesNo3,2020_Mar_23_1659,Yes-No Task,
Yes-No Task,24,0,24,0,10,-1,Hit,1,1,0.38420919998316094,True,-1,stimulus_YesNo3_Yes-No Task_2020_Mar_23_1659_205,-1,False,1,YesNo3,2020_Mar_23_1659,Yes-No Task,
Yes-No Task,25,0,25,0,10,-1,Hit,1,1,0.40209150000009686,True,-1,stimulus_YesNo3_Yes-No Task_2020_Mar_23_1659_206,-1,False,1,YesNo3,2020_Mar_23_1659,Yes-No Task,
Yes-No Task,26,0,26,0,10,-1,Hit,1,1,0.30069569998886436,True,-1,stimulus_YesNo3_Yes-No Task_2020_Mar_23_1659_207,-1,False,1,YesNo3,2020_Mar_23_1659,Yes-No Task,
Yes-No Task,27,0,27,0,10,-1,Hit,1,1,0.31791829998837784,True,-1,stimulus_YesNo3_Yes-No Task_2020_Mar_23_1659_208,-1,False,1,YesNo3,2020_Mar_23_1659,Yes-No Task,
Yes-No Task,28,0,28,0,10,-1,Hit,1,1,0.2688683000160381,True,-1,stimulus_YesNo3_Yes-No Task_2020_Mar_23_1659_209,-1,False,1,YesNo3,2020_Mar_23_1659,Yes-No Task,
Yes-No Task,29,0,29,0,10,-1,Correct Rejection,0,0,0.40053669997723773,False,-1,stimulus_YesNo3_Yes-No Task_2020_Mar_23_1659_210,-1,False,1,YesNo3,2020_Mar_23_1659,Yes-No Task,
Yes-No Task,30,0,30,0,10,-1,Correct Rejection,0,0,0.36924819997511804,False,-1,stimulus_YesNo3_Yes-No Task_2020_Mar_23_1659_211,-1,False,1,YesNo3,2020_Mar_23_1659,Yes-No Task,
Yes-No Task,31,0,31,0,10,-1,Hit,1,1,0.5339114000089467,True,-1,stimulus_YesNo3_Yes-No Task_2020_Mar_23_1659_212,-1,False,1,YesNo3,2020_Mar_23_1659,Yes-No Task,
Yes-No Task,32,0,32,0,10,-1,Hit,1,1,0.4020615000044927,True,-1,stimulus_YesNo3_Yes-No Task_2020_Mar_23_1659_213,-1,False,1,YesNo3,2020_Mar_23_1659,Yes-No Task,
Yes-No Task,33,0,33,0,10,-1,Hit,1,1,0.3680144000099972,True,-1,stimulus_YesNo3_Yes-No Task_2020_Mar_23_1659_214,-1,False,1,YesNo3,2020_Mar_23_1659,Yes-No Task,
Yes-No Task,34,0,34,0,10,-1,Correct Rejection,0,0,0.5011209999793209,False,-1,stimulus_YesNo3_Yes-No Task_2020_Mar_23_1659_215,-1,False,1,YesNo3,2020_Mar_23_1659,Yes-No Task,
Yes-No Task,35,0,35,0,10,-1,False Alarm,1,0,0.4510920000029728,False,-1,stimulus_YesNo3_Yes-No Task_2020_Mar_23_1659_216,-1,False,1,YesNo3,2020_Mar_23_1659,Yes-No Task,
Yes-No Task,36,0,36,0,10,-1,Correct Rejection,0,0,0.3842214000178501,False,-1,stimulus_YesNo3_Yes-No Task_2020_Mar_23_1659_217,-1,False,1,YesNo3,2020_Mar_23_1659,Yes-No Task,
Yes-No Task,37,0,37,0,10,-1,Correct Rejection,0,0,0.4330092999734916,False,-1,stimulus_YesNo3_Yes-No Task_2020_Mar_23_1659_218,-1,False,1,YesNo3,2020_Mar_23_1659,Yes-No Task,
Yes-No Task,38,0,38,0,10,-1,Hit,1,1,0.368323800037615,True,-1,stimulus_YesNo3_Yes-No Task_2020_Mar_23_1659_219,-1,False,1,YesNo3,2020_Mar_23_1659,Yes-No Task,
Yes-No Task,39,0,39,0,10,-1,False Alarm,1,0,0.46756150003056973,False,-1,stimulus_YesNo3_Yes-No Task_2020_Mar_23_1659_220,-1,False,1,YesNo3,2020_Mar_23_1659,Yes-No Task,
Yes-No Task,40,0,40,0,10,-1,Correct Rejection,0,0,0.40113880002172664,False,-1,stimulus_YesNo3_Yes-No Task_2020_Mar_23_1659_221,-1,False,1,YesNo3,2020_Mar_23_1659,Yes-No Task,
Yes-No Task,41,0,41,0,10,-1,Correct Rejection,0,0,0.48588769999332726,False,-1,stimulus_YesNo3_Yes-No Task_2020_Mar_23_1659_222,-1,False,1,YesNo3,2020_Mar_23_1659,Yes-No Task,
Yes-No Task,42,0,42,0,10,-1,Correct Rejection,0,0,0.48569010000210255,False,-1,stimulus_YesNo3_Yes-No Task_2020_Mar_23_1659_223,-1,False,1,YesNo3,2020_Mar_23_1659,Yes-No Task,
Yes-No Task,43,0,43,0,10,-1,Hit,1,1,0.4183443000074476,True,-1,stimulus_YesNo3_Yes-No Task_2020_Mar_23_1659_224,-1,False,1,YesNo3,2020_Mar_23_1659,Yes-No Task,
Yes-No Task,44,0,44,0,10,-1,Correct Rejection,0,0,0.4198790999944322,False,-1,stimulus_YesNo3_Yes-No Task_2020_Mar_23_1659_225,-1,False,1,YesNo3,2020_Mar_23_1659,Yes-No Task,
Yes-No Task,0,0,0,0,8,-1,Correct Rejection,0,0,0.5012694000033662,False,-1,stimulus_YesNo3_Yes-No Task_2020_Mar_23_1659_226,-1,False,1,YesNo3,2020_Mar_23_1659,Yes-No Task,
Yes-No Task,1,0,1,0,8,-1,Correct Rejection,0,0,0.3510833000182174,False,-1,stimulus_YesNo3_Yes-No Task_2020_Mar_23_1659_227,-1,False,1,YesNo3,2020_Mar_23_1659,Yes-No Task,
Yes-No Task,2,0,2,0,8,-1,Hit,1,1,0.40160539996577427,True,-1,stimulus_YesNo3_Yes-No Task_2020_Mar_23_1659_228,-1,False,1,YesNo3,2020_Mar_23_1659,Yes-No Task,
Yes-No Task,3,0,3,0,8,-1,Correct Rejection,0,0,0.3992486000061035,False,-1,stimulus_YesNo3_Yes-No Task_2020_Mar_23_1659_229,-1,False,1,YesNo3,2020_Mar_23_1659,Yes-No Task,
Yes-No Task,4,0,4,0,8,-1,Hit,1,1,0.46797520003747195,True,-1,stimulus_YesNo3_Yes-No Task_2020_Mar_23_1659_230,-1,False,1,YesNo3,2020_Mar_23_1659,Yes-No Task,
Yes-No Task,5,0,5,0,8,-1,Hit,1,1,0.5009396999957971,True,-1,stimulus_YesNo3_Yes-No Task_2020_Mar_23_1659_231,-1,False,1,YesNo3,2020_Mar_23_1659,Yes-No Task,
Yes-No Task,6,0,6,0,8,-1,Hit,1,1,0.3528177999542095,True,-1,stimulus_YesNo3_Yes-No Task_2020_Mar_23_1659_232,-1,False,1,YesNo3,2020_Mar_23_1659,Yes-No Task,
Yes-No Task,7,0,7,0,8,-1,Hit,1,1,0.31979650002904236,True,-1,stimulus_YesNo3_Yes-No Task_2020_Mar_23_1659_233,-1,False,1,YesNo3,2020_Mar_23_1659,Yes-No Task,
Yes-No Task,8,0,8,0,8,-1,Hit,1,1,0.4550277999951504,True,-1,stimulus_YesNo3_Yes-No Task_2020_Mar_23_1659_234,-1,False,1,YesNo3,2020_Mar_23_1659,Yes-No Task,
Yes-No Task,9,0,9,0,8,-1,Hit,1,1,0.35258310002973303,True,-1,stimulus_YesNo3_Yes-No Task_2020_Mar_23_1659_235,-1,False,1,YesNo3,2020_Mar_23_1659,Yes-No Task,
Yes-No Task,10,0,10,0,8,-1,False Alarm,1,0,0.28462029999354854,False,-1,stimulus_YesNo3_Yes-No Task_2020_Mar_23_1659_236,-1,False,1,YesNo3,2020_Mar_23_1659,Yes-No Task,
Yes-No Task,11,0,11,0,8,-1,Hit,1,1,0.4033919000066817,True,-1,stimulus_YesNo3_Yes-No Task_2020_Mar_23_1659_237,-1,False,1,YesNo3,2020_Mar_23_1659,Yes-No Task,
Yes-No Task,12,0,12,0,8,-1,Correct Rejection,0,0,0.3833398999995552,False,-1,stimulus_YesNo3_Yes-No Task_2020_Mar_23_1659_238,-1,False,1,YesNo3,2020_Mar_23_1659,Yes-No Task,
Yes-No Task,13,0,13,0,8,-1,Hit,1,1,0.3685611999826506,True,-1,stimulus_YesNo3_Yes-No Task_2020_Mar_23_1659_239,-1,False,1,YesNo3,2020_Mar_23_1659,Yes-No Task,
Yes-No Task,14,0,14,0,8,-1,Correct Rejection,0,0,0.483974099974148,False,-1,stimulus_YesNo3_Yes-No Task_2020_Mar_23_1659_240,-1,False,1,YesNo3,2020_Mar_23_1659,Yes-No Task,
Yes-No Task,15,0,15,0,8,-1,Correct Rejection,0,0,0.4180627000168897,False,-1,stimulus_YesNo3_Yes-No Task_2020_Mar_23_1659_241,-1,False,1,YesNo3,2020_Mar_23_1659,Yes-No Task,
Yes-No Task,16,0,16,0,8,-1,Hit,1,1,0.3876021999749355,True,-1,stimulus_YesNo3_Yes-No Task_2020_Mar_23_1659_242,-1,False,1,YesNo3,2020_Mar_23_1659,Yes-No Task,
Yes-No Task,17,0,17,0,8,-1,Correct Rejection,0,0,0.3334165000123903,False,-1,stimulus_YesNo3_Yes-No Task_2020_Mar_23_1659_243,-1,False,1,YesNo3,2020_Mar_23_1659,Yes-No Task,
Yes-No Task,18,0,18,0,8,-1,Hit,1,1,0.38765379996038973,True,-1,stimulus_YesNo3_Yes-No Task_2020_Mar_23_1659_244,-1,False,1,YesNo3,2020_Mar_23_1659,Yes-No Task,
Yes-No Task,19,0,19,0,8,-1,Hit,1,1,0.5182016000035219,True,-1,stimulus_YesNo3_Yes-No Task_2020_Mar_23_1659_245,-1,False,1,YesNo3,2020_Mar_23_1659,Yes-No Task,
Yes-No Task,20,0,20,0,8,-1,Hit,1,1,0.2980587999918498,True,-1,stimulus_YesNo3_Yes-No Task_2020_Mar_23_1659_246,-1,False,1,YesNo3,2020_Mar_23_1659,Yes-No Task,
Yes-No Task,21,0,21,0,8,-1,Hit,1,1,0.25089259998640046,True,-1,stimulus_YesNo3_Yes-No Task_2020_Mar_23_1659_247,-1,False,1,YesNo3,2020_Mar_23_1659,Yes-No Task,
Yes-No Task,22,0,22,0,8,-1,False Alarm,1,0,0.2524762999964878,False,-1,stimulus_YesNo3_Yes-No Task_2020_Mar_23_1659_248,-1,False,1,YesNo3,2020_Mar_23_1659,Yes-No Task,
Yes-No Task,23,0,23,0,8,-1,Correct Rejection,0,0,0.3180876999977045,False,-1,stimulus_YesNo3_Yes-No Task_2020_Mar_23_1659_249,-1,False,1,YesNo3,2020_Mar_23_1659,Yes-No Task,
Yes-No Task,24,0,24,0,8,-1,Correct Rejection,0,0,0.3334815999842249,False,-1,stimulus_YesNo3_Yes-No Task_2020_Mar_23_1659_250,-1,False,1,YesNo3,2020_Mar_23_1659,Yes-No Task,
Yes-No Task,25,0,25,0,8,-1,Hit,1,1,0.3854556999867782,True,-1,stimulus_YesNo3_Yes-No Task_2020_Mar_23_1659_251,-1,False,1,YesNo3,2020_Mar_23_1659,Yes-No Task,
Yes-No Task,26,0,26,0,8,-1,Correct Rejection,0,0,0.3181314999819733,False,-1,stimulus_YesNo3_Yes-No Task_2020_Mar_23_1659_252,-1,False,1,YesNo3,2020_Mar_23_1659,Yes-No Task,
Yes-No Task,27,0,27,0,8,-1,Correct Rejection,0,0,0.3342461999855004,False,-1,stimulus_YesNo3_Yes-No Task_2020_Mar_23_1659_253,-1,False,1,YesNo3,2020_Mar_23_1659,Yes-No Task,
Yes-No Task,28,0,28,0,8,-1,Correct Rejection,0,0,0.35112990002380684,False,-1,stimulus_YesNo3_Yes-No Task_2020_Mar_23_1659_254,-1,False,1,YesNo3,2020_Mar_23_1659,Yes-No Task,
Yes-No Task,29,0,29,0,8,-1,Correct Rejection,0,0,0.41833389998646453,False,-1,stimulus_YesNo3_Yes-No Task_2020_Mar_23_1659_255,-1,False,1,YesNo3,2020_Mar_23_1659,Yes-No Task,
Yes-No Task,30,0,30,0,8,-1,False Alarm,1,0,0.48480839998228475,False,-1,stimulus_YesNo3_Yes-No Task_2020_Mar_23_1659_256,-1,False,1,YesNo3,2020_Mar_23_1659,Yes-No Task,
Yes-No Task,31,0,31,0,8,-1,Correct Rejection,0,0,0.4682003000052646,False,-1,stimulus_YesNo3_Yes-No Task_2020_Mar_23_1659_257,-1,False,1,YesNo3,2020_Mar_23_1659,Yes-No Task,
Yes-No Task,32,0,32,0,8,-1,Correct Rejection,0,0,0.36778299999423325,False,-1,stimulus_YesNo3_Yes-No Task_2020_Mar_23_1659_258,-1,False,1,YesNo3,2020_Mar_23_1659,Yes-No Task,
Yes-No Task,33,0,33,0,8,-1,Hit,1,1,0.5840199000085704,True,-1,stimulus_YesNo3_Yes-No Task_2020_Mar_23_1659_259,-1,False,1,YesNo3,2020_Mar_23_1659,Yes-No Task,
Yes-No Task,34,0,34,0,8,-1,Hit,1,1,0.4528514000121504,True,-1,stimulus_YesNo3_Yes-No Task_2020_Mar_23_1659_260,-1,False,1,YesNo3,2020_Mar_23_1659,Yes-No Task,
Yes-No Task,35,0,35,0,8,-1,Hit,1,1,0.41929379996145144,True,-1,stimulus_YesNo3_Yes-No Task_2020_Mar_23_1659_261,-1,False,1,YesNo3,2020_Mar_23_1659,Yes-No Task,
Yes-No Task,36,0,36,0,8,-1,Correct Rejection,0,0,0.5014055000501685,False,-1,stimulus_YesNo3_Yes-No Task_2020_Mar_23_1659_262,-1,False,1,YesNo3,2020_Mar_23_1659,Yes-No Task,
Yes-No Task,37,0,37,0,8,-1,Correct Rejection,0,0,0.3700158999999985,False,-1,stimulus_YesNo3_Yes-No Task_2020_Mar_23_1659_263,-1,False,1,YesNo3,2020_Mar_23_1659,Yes-No Task,
Yes-No Task,38,0,38,0,8,-1,Miss,0,1,0.45022130000870675,True,-1,stimulus_YesNo3_Yes-No Task_2020_Mar_23_1659_264,-1,False,1,YesNo3,2020_Mar_23_1659,Yes-No Task,
Yes-No Task,39,0,39,0,8,-1,Correct Rejection,0,0,0.2672963000368327,False,-1,stimulus_YesNo3_Yes-No Task_2020_Mar_23_1659_265,-1,False,1,YesNo3,2020_Mar_23_1659,Yes-No Task,
Yes-No Task,40,0,40,0,8,-1,Correct Rejection,0,0,0.2848399000358768,False,-1,stimulus_YesNo3_Yes-No Task_2020_Mar_23_1659_266,-1,False,1,YesNo3,2020_Mar_23_1659,Yes-No Task,
Yes-No Task,41,0,41,0,8,-1,Correct Rejection,0,0,0.38167189998785034,False,-1,stimulus_YesNo3_Yes-No Task_2020_Mar_23_1659_267,-1,False,1,YesNo3,2020_Mar_23_1659,Yes-No Task,
Yes-No Task,42,0,42,0,8,-1,Correct Rejection,0,0,0.33469039999181405,False,-1,stimulus_YesNo3_Yes-No Task_2020_Mar_23_1659_268,-1,False,1,YesNo3,2020_Mar_23_1659,Yes-No Task,
Yes-No Task,43,0,43,0,8,-1,False Alarm,1,0,0.6348803999717347,False,-1,stimulus_YesNo3_Yes-No Task_2020_Mar_23_1659_269,-1,False,1,YesNo3,2020_Mar_23_1659,Yes-No Task,
Yes-No Task,44,0,44,0,8,-1,Correct Rejection,0,0,0.3196756999823265,False,-1,stimulus_YesNo3_Yes-No Task_2020_Mar_23_1659_270,-1,False,1,YesNo3,2020_Mar_23_1659,Yes-No Task,
Yes-No Task,0,0,0,0,4,-1,Miss,0,1,0.45212190004531294,True,-1,stimulus_YesNo3_Yes-No Task_2020_Mar_23_1659_271,-1,False,1,YesNo3,2020_Mar_23_1659,Yes-No Task,
Yes-No Task,1,0,1,0,4,-1,Hit,1,1,0.5175412999815308,True,-1,stimulus_YesNo3_Yes-No Task_2020_Mar_23_1659_272,-1,False,1,YesNo3,2020_Mar_23_1659,Yes-No Task,
Yes-No Task,2,0,2,0,4,-1,Miss,0,1,0.40412039996590465,True,-1,stimulus_YesNo3_Yes-No Task_2020_Mar_23_1659_273,-1,False,1,YesNo3,2020_Mar_23_1659,Yes-No Task,
Yes-No Task,3,0,3,0,4,-1,False Alarm,1,0,0.468859100015834,False,-1,stimulus_YesNo3_Yes-No Task_2020_Mar_23_1659_274,-1,False,1,YesNo3,2020_Mar_23_1659,Yes-No Task,
Yes-No Task,4,0,4,0,4,-1,Hit,1,1,0.6202730999793857,True,-1,stimulus_YesNo3_Yes-No Task_2020_Mar_23_1659_275,-1,False,1,YesNo3,2020_Mar_23_1659,Yes-No Task,
Yes-No Task,5,0,5,0,4,-1,Correct Rejection,0,0,0.38485239999135956,False,-1,stimulus_YesNo3_Yes-No Task_2020_Mar_23_1659_276,-1,False,1,YesNo3,2020_Mar_23_1659,Yes-No Task,
Yes-No Task,6,0,6,0,4,-1,Correct Rejection,0,0,0.45472500001778826,False,-1,stimulus_YesNo3_Yes-No Task_2020_Mar_23_1659_277,-1,False,1,YesNo3,2020_Mar_23_1659,Yes-No Task,
Yes-No Task,7,0,7,0,4,-1,Hit,1,1,0.3690711000235751,True,-1,stimulus_YesNo3_Yes-No Task_2020_Mar_23_1659_278,-1,False,1,YesNo3,2020_Mar_23_1659,Yes-No Task,
Yes-No Task,8,0,8,0,4,-1,Correct Rejection,0,0,0.434489399951417,False,-1,stimulus_YesNo3_Yes-No Task_2020_Mar_23_1659_279,-1,False,1,YesNo3,2020_Mar_23_1659,Yes-No Task,
Yes-No Task,9,0,9,0,4,-1,Correct Rejection,0,0,0.5344574999762699,False,-1,stimulus_YesNo3_Yes-No Task_2020_Mar_23_1659_280,-1,False,1,YesNo3,2020_Mar_23_1659,Yes-No Task,
Yes-No Task,10,0,10,0,4,-1,Correct Rejection,0,0,0.36864080000668764,False,-1,stimulus_YesNo3_Yes-No Task_2020_Mar_23_1659_281,-1,False,1,YesNo3,2020_Mar_23_1659,Yes-No Task,
Yes-No Task,11,0,11,0,4,-1,Miss,0,1,0.5015807999880053,True,-1,stimulus_YesNo3_Yes-No Task_2020_Mar_23_1659_282,-1,False,1,YesNo3,2020_Mar_23_1659,Yes-No Task,
Yes-No Task,12,0,12,0,4,-1,Hit,1,1,0.33547140000155196,True,-1,stimulus_YesNo3_Yes-No Task_2020_Mar_23_1659_283,-1,False,1,YesNo3,2020_Mar_23_1659,Yes-No Task,
Yes-No Task,13,0,13,0,4,-1,Miss,0,1,0.4002836999716237,True,-1,stimulus_YesNo3_Yes-No Task_2020_Mar_23_1659_284,-1,False,1,YesNo3,2020_Mar_23_1659,Yes-No Task,
Yes-No Task,14,0,14,0,4,-1,False Alarm,1,0,0.6027130999718793,False,-1,stimulus_YesNo3_Yes-No Task_2020_Mar_23_1659_285,-1,False,1,YesNo3,2020_Mar_23_1659,Yes-No Task,
Yes-No Task,15,0,15,0,4,-1,Miss,0,1,0.4175072999787517,True,-1,stimulus_YesNo3_Yes-No Task_2020_Mar_23_1659_286,-1,False,1,YesNo3,2020_Mar_23_1659,Yes-No Task,
Yes-No Task,16,0,16,0,4,-1,Hit,1,1,0.6027348999632522,True,-1,stimulus_YesNo3_Yes-No Task_2020_Mar_23_1659_287,-1,False,1,YesNo3,2020_Mar_23_1659,Yes-No Task,
Yes-No Task,17,0,17,0,4,-1,Correct Rejection,0,0,0.4372158999904059,False,-1,stimulus_YesNo3_Yes-No Task_2020_Mar_23_1659_288,-1,False,1,YesNo3,2020_Mar_23_1659,Yes-No Task,
Yes-No Task,18,0,18,0,4,-1,Correct Rejection,0,0,0.4365838000085205,False,-1,stimulus_YesNo3_Yes-No Task_2020_Mar_23_1659_289,-1,False,1,YesNo3,2020_Mar_23_1659,Yes-No Task,
Yes-No Task,19,0,19,0,4,-1,Hit,1,1,0.4016768000437878,True,-1,stimulus_YesNo3_Yes-No Task_2020_Mar_23_1659_290,-1,False,1,YesNo3,2020_Mar_23_1659,Yes-No Task,
Yes-No Task,20,0,20,0,4,-1,Miss,0,1,0.46682410000357777,True,-1,stimulus_YesNo3_Yes-No Task_2020_Mar_23_1659_291,-1,False,1,YesNo3,2020_Mar_23_1659,Yes-No Task,
Yes-No Task,21,0,21,0,4,-1,Correct Rejection,0,0,0.5368473999551497,False,-1,stimulus_YesNo3_Yes-No Task_2020_Mar_23_1659_292,-1,False,1,YesNo3,2020_Mar_23_1659,Yes-No Task,
Yes-No Task,22,0,22,0,4,-1,Miss,0,1,0.4352319000172429,True,-1,stimulus_YesNo3_Yes-No Task_2020_Mar_23_1659_293,-1,False,1,YesNo3,2020_Mar_23_1659,Yes-No Task,
Yes-No Task,23,0,23,0,4,-1,Hit,1,1,0.4175068999757059,True,-1,stimulus_YesNo3_Yes-No Task_2020_Mar_23_1659_294,-1,False,1,YesNo3,2020_Mar_23_1659,Yes-No Task,
Yes-No Task,24,0,24,0,4,-1,Miss,0,1,0.5863446000148542,True,-1,stimulus_YesNo3_Yes-No Task_2020_Mar_23_1659_295,-1,False,1,YesNo3,2020_Mar_23_1659,Yes-No Task,
Yes-No Task,25,0,25,0,4,-1,Correct Rejection,0,0,0.5979510999750346,False,-1,stimulus_YesNo3_Yes-No Task_2020_Mar_23_1659_296,-1,False,1,YesNo3,2020_Mar_23_1659,Yes-No Task,
Yes-No Task,26,0,26,0,4,-1,False Alarm,1,0,0.5682965000160038,False,-1,stimulus_YesNo3_Yes-No Task_2020_Mar_23_1659_297,-1,False,1,YesNo3,2020_Mar_23_1659,Yes-No Task,
Yes-No Task,27,0,27,0,4,-1,Miss,0,1,0.49945459997979924,True,-1,stimulus_YesNo3_Yes-No Task_2020_Mar_23_1659_298,-1,False,1,YesNo3,2020_Mar_23_1659,Yes-No Task,
Yes-No Task,28,0,28,0,4,-1,Hit,1,1,0.6367844000342302,True,-1,stimulus_YesNo3_Yes-No Task_2020_Mar_23_1659_299,-1,False,1,YesNo3,2020_Mar_23_1659,Yes-No Task,
Yes-No Task,29,0,29,0,4,-1,Correct Rejection,0,0,0.45206010004039854,False,-1,stimulus_YesNo3_Yes-No Task_2020_Mar_23_1659_300,-1,False,1,YesNo3,2020_Mar_23_1659,Yes-No Task,
Yes-No Task,30,0,30,0,4,-1,Correct Rejection,0,0,0.5183574999682605,False,-1,stimulus_YesNo3_Yes-No Task_2020_Mar_23_1659_301,-1,False,1,YesNo3,2020_Mar_23_1659,Yes-No Task,
Yes-No Task,31,0,31,0,4,-1,Miss,0,1,0.486155399994459,True,-1,stimulus_YesNo3_Yes-No Task_2020_Mar_23_1659_302,-1,False,1,YesNo3,2020_Mar_23_1659,Yes-No Task,
Yes-No Task,32,0,32,0,4,-1,Hit,1,1,0.3857844999874942,True,-1,stimulus_YesNo3_Yes-No Task_2020_Mar_23_1659_303,-1,False,1,YesNo3,2020_Mar_23_1659,Yes-No Task,
Yes-No Task,33,0,33,0,4,-1,False Alarm,1,0,0.5040411000372842,False,-1,stimulus_YesNo3_Yes-No Task_2020_Mar_23_1659_304,-1,False,1,YesNo3,2020_Mar_23_1659,Yes-No Task,
Yes-No Task,34,0,34,0,4,-1,Miss,0,1,0.4851693999953568,True,-1,stimulus_YesNo3_Yes-No Task_2020_Mar_23_1659_305,-1,False,1,YesNo3,2020_Mar_23_1659,Yes-No Task,
Yes-No Task,35,0,35,0,4,-1,Correct Rejection,0,0,0.5340169999981299,False,-1,stimulus_YesNo3_Yes-No Task_2020_Mar_23_1659_306,-1,False,1,YesNo3,2020_Mar_23_1659,Yes-No Task,
Yes-No Task,36,0,36,0,4,-1,Correct Rejection,0,0,0.6009390999679454,False,-1,stimulus_YesNo3_Yes-No Task_2020_Mar_23_1659_307,-1,False,1,YesNo3,2020_Mar_23_1659,Yes-No Task,
Yes-No Task,37,0,37,0,4,-1,Hit,1,1,0.4847821000148542,True,-1,stimulus_YesNo3_Yes-No Task_2020_Mar_23_1659_308,-1,False,1,YesNo3,2020_Mar_23_1659,Yes-No Task,
Yes-No Task,38,0,38,0,4,-1,Correct Rejection,0,0,0.5002029999741353,False,-1,stimulus_YesNo3_Yes-No Task_2020_Mar_23_1659_309,-1,False,1,YesNo3,2020_Mar_23_1659,Yes-No Task,
Yes-No Task,39,0,39,0,4,-1,Miss,0,1,0.43448320002062246,True,-1,stimulus_YesNo3_Yes-No Task_2020_Mar_23_1659_310,-1,False,1,YesNo3,2020_Mar_23_1659,Yes-No Task,
Yes-No Task,40,0,40,0,4,-1,Miss,0,1,0.5508962000021711,True,-1,stimulus_YesNo3_Yes-No Task_2020_Mar_23_1659_311,-1,False,1,YesNo3,2020_Mar_23_1659,Yes-No Task,
Yes-No Task,41,0,41,0,4,-1,False Alarm,1,0,0.3353122000116855,False,-1,stimulus_YesNo3_Yes-No Task_2020_Mar_23_1659_312,-1,False,1,YesNo3,2020_Mar_23_1659,Yes-No Task,
Yes-No Task,42,0,42,0,4,-1,Correct Rejection,0,0,0.4019978999858722,False,-1,stimulus_YesNo3_Yes-No Task_2020_Mar_23_1659_313,-1,False,1,YesNo3,2020_Mar_23_1659,Yes-No Task,
Yes-No Task,43,0,43,0,4,-1,Correct Rejection,0,0,0.5521527999662794,False,-1,stimulus_YesNo3_Yes-No Task_2020_Mar_23_1659_314,-1,False,1,YesNo3,2020_Mar_23_1659,Yes-No Task,
Yes-No Task,44,0,44,0,4,-1,Correct Rejection,0,0,0.6675047000171617,False,-1,stimulus_YesNo3_Yes-No Task_2020_Mar_23_1659_315,-1,False,1,YesNo3,2020_Mar_23_1659,Yes-No Task,
Yes-No Task,0,0,0,0,6,-1,No Answer,2,2,-1,False,-1,stimulus_YesNo3_Yes-No Task_2020_Mar_23_1659_316,-1,False,1,YesNo3,2020_Mar_23_1659,Yes-No Task,
Yes-No Task,1,0,1,0,6,-1,Miss,0,1,0.2511090000043623,True,-1,stimulus_YesNo3_Yes-No Task_2020_Mar_23_1659_317,-1,False,1,YesNo3,2020_Mar_23_1659,Yes-No Task,
Yes-No Task,2,0,2,0,6,-1,Correct Rejection,0,0,0.33405090001178905,False,-1,stimulus_YesNo3_Yes-No Task_2020_Mar_23_1659_318,-1,False,1,YesNo3,2020_Mar_23_1659,Yes-No Task,
Yes-No Task,3,0,3,0,6,-1,Miss,0,1,0.29910629999358207,True,-1,stimulus_YesNo3_Yes-No Task_2020_Mar_23_1659_319,-1,False,1,YesNo3,2020_Mar_23_1659,Yes-No Task,
Yes-No Task,4,0,4,0,6,-1,Hit,1,1,0.31855010002618656,True,-1,stimulus_YesNo3_Yes-No Task_2020_Mar_23_1659_320,-1,False,1,YesNo3,2020_Mar_23_1659,Yes-No Task,
Yes-No Task,5,0,5,0,6,-1,Miss,0,1,0.28486319998046383,True,-1,stimulus_YesNo3_Yes-No Task_2020_Mar_23_1659_321,-1,False,1,YesNo3,2020_Mar_23_1659,Yes-No Task,
Yes-No Task,6,0,6,0,6,-1,Hit,1,1,0.4011109000421129,True,-1,stimulus_YesNo3_Yes-No Task_2020_Mar_23_1659_322,-1,False,1,YesNo3,2020_Mar_23_1659,Yes-No Task,
Yes-No Task,7,0,7,0,6,-1,False Alarm,1,0,0.4184952000505291,False,-1,stimulus_YesNo3_Yes-No Task_2020_Mar_23_1659_323,-1,False,1,YesNo3,2020_Mar_23_1659,Yes-No Task,
Yes-No Task,8,0,8,0,6,-1,Miss,0,1,0.4524352999869734,True,-1,stimulus_YesNo3_Yes-No Task_2020_Mar_23_1659_324,-1,False,1,YesNo3,2020_Mar_23_1659,Yes-No Task,
Yes-No Task,9,0,9,0,6,-1,Correct Rejection,0,0,0.40151090000290424,False,-1,stimulus_YesNo3_Yes-No Task_2020_Mar_23_1659_325,-1,False,1,YesNo3,2020_Mar_23_1659,Yes-No Task,
Yes-No Task,10,0,10,0,6,-1,Miss,0,1,0.31853180000325665,True,-1,stimulus_YesNo3_Yes-No Task_2020_Mar_23_1659_326,-1,False,1,YesNo3,2020_Mar_23_1659,Yes-No Task,
Yes-No Task,11,0,11,0,6,-1,Correct Rejection,0,0,0.702160399989225,False,-1,stimulus_YesNo3_Yes-No Task_2020_Mar_23_1659_327,-1,False,1,YesNo3,2020_Mar_23_1659,Yes-No Task,
Yes-No Task,12,0,12,0,6,-1,False Alarm,1,0,0.41855180001584813,False,-1,stimulus_YesNo3_Yes-No Task_2020_Mar_23_1659_328,-1,False,1,YesNo3,2020_Mar_23_1659,Yes-No Task,
Yes-No Task,13,0,13,0,6,-1,Hit,1,1,0.4521995999966748,True,-1,stimulus_YesNo3_Yes-No Task_2020_Mar_23_1659_329,-1,False,1,YesNo3,2020_Mar_23_1659,Yes-No Task,
Yes-No Task,14,0,14,0,6,-1,Correct Rejection,0,0,0.5344726999755949,False,-1,stimulus_YesNo3_Yes-No Task_2020_Mar_23_1659_330,-1,False,1,YesNo3,2020_Mar_23_1659,Yes-No Task,
Yes-No Task,15,0,15,0,6,-1,Hit,1,1,0.5349860999849625,True,-1,stimulus_YesNo3_Yes-No Task_2020_Mar_23_1659_331,-1,False,1,YesNo3,2020_Mar_23_1659,Yes-No Task,
Yes-No Task,16,0,16,0,6,-1,Hit,1,1,0.43568340002093464,True,-1,stimulus_YesNo3_Yes-No Task_2020_Mar_23_1659_332,-1,False,1,YesNo3,2020_Mar_23_1659,Yes-No Task,
Yes-No Task,17,0,17,0,6,-1,Hit,1,1,0.5180065000313334,True,-1,stimulus_YesNo3_Yes-No Task_2020_Mar_23_1659_333,-1,False,1,YesNo3,2020_Mar_23_1659,Yes-No Task,
Yes-No Task,18,0,18,0,6,-1,Hit,1,1,0.4197556999861263,True,-1,stimulus_YesNo3_Yes-No Task_2020_Mar_23_1659_334,-1,False,1,YesNo3,2020_Mar_23_1659,Yes-No Task,
Yes-No Task,19,0,19,0,6,-1,Hit,1,1,0.43372139998245984,True,-1,stimulus_YesNo3_Yes-No Task_2020_Mar_23_1659_335,-1,False,1,YesNo3,2020_Mar_23_1659,Yes-No Task,
Yes-No Task,20,0,20,0,6,-1,Hit,1,1,0.49945319996913895,True,-1,stimulus_YesNo3_Yes-No Task_2020_Mar_23_1659_336,-1,False,1,YesNo3,2020_Mar_23_1659,Yes-No Task,
Yes-No Task,21,0,21,0,6,-1,Hit,1,1,0.4357167000416666,True,-1,stimulus_YesNo3_Yes-No Task_2020_Mar_23_1659_337,-1,False,1,YesNo3,2020_Mar_23_1659,Yes-No Task,
Yes-No Task,22,0,22,0,6,-1,Correct Rejection,0,0,0.5354605000466108,False,-1,stimulus_YesNo3_Yes-No Task_2020_Mar_23_1659_338,-1,False,1,YesNo3,2020_Mar_23_1659,Yes-No Task,
Yes-No Task,23,0,23,0,6,-1,Hit,1,1,0.4689446000265889,True,-1,stimulus_YesNo3_Yes-No Task_2020_Mar_23_1659_339,-1,False,1,YesNo3,2020_Mar_23_1659,Yes-No Task,
Yes-No Task,24,0,24,0,6,-1,Hit,1,1,0.4019763999967836,True,-1,stimulus_YesNo3_Yes-No Task_2020_Mar_23_1659_340,-1,False,1,YesNo3,2020_Mar_23_1659,Yes-No Task,
Yes-No Task,25,0,25,0,6,-1,Correct Rejection,0,0,0.4526320999721065,False,-1,stimulus_YesNo3_Yes-No Task_2020_Mar_23_1659_341,-1,False,1,YesNo3,2020_Mar_23_1659,Yes-No Task,
Yes-No Task,26,0,26,0,6,-1,Hit,1,1,0.5015194999868982,True,-1,stimulus_YesNo3_Yes-No Task_2020_Mar_23_1659_342,-1,False,1,YesNo3,2020_Mar_23_1659,Yes-No Task,
Yes-No Task,27,0,27,0,6,-1,Correct Rejection,0,0,0.4686172000365332,False,-1,stimulus_YesNo3_Yes-No Task_2020_Mar_23_1659_343,-1,False,1,YesNo3,2020_Mar_23_1659,Yes-No Task,
Yes-No Task,28,0,28,0,6,-1,Miss,0,1,0.48611900000832975,True,-1,stimulus_YesNo3_Yes-No Task_2020_Mar_23_1659_344,-1,False,1,YesNo3,2020_Mar_23_1659,Yes-No Task,
Yes-No Task,29,0,29,0,6,-1,Hit,1,1,0.4370407999958843,True,-1,stimulus_YesNo3_Yes-No Task_2020_Mar_23_1659_345,-1,False,1,YesNo3,2020_Mar_23_1659,Yes-No Task,
Yes-No Task,30,0,30,0,6,-1,Hit,1,1,0.6673046000069007,True,-1,stimulus_YesNo3_Yes-No Task_2020_Mar_23_1659_346,-1,False,1,YesNo3,2020_Mar_23_1659,Yes-No Task,
Yes-No Task,31,0,31,0,6,-1,Correct Rejection,0,0,0.7991919000050984,False,-1,stimulus_YesNo3_Yes-No Task_2020_Mar_23_1659_347,-1,False,1,YesNo3,2020_Mar_23_1659,Yes-No Task,
Yes-No Task,32,0,32,0,6,-1,Correct Rejection,0,0,0.3678919999510981,False,-1,stimulus_YesNo3_Yes-No Task_2020_Mar_23_1659_348,-1,False,1,YesNo3,2020_Mar_23_1659,Yes-No Task,
Yes-No Task,33,0,33,0,6,-1,Hit,1,1,0.4018274999689311,True,-1,stimulus_YesNo3_Yes-No Task_2020_Mar_23_1659_349,-1,False,1,YesNo3,2020_Mar_23_1659,Yes-No Task,
Yes-No Task,34,0,34,0,6,-1,False Alarm,1,0,0.4514548000297509,False,-1,stimulus_YesNo3_Yes-No Task_2020_Mar_23_1659_350,-1,False,1,YesNo3,2020_Mar_23_1659,Yes-No Task,
Yes-No Task,35,0,35,0,6,-1,Miss,0,1,0.4709005000186153,True,-1,stimulus_YesNo3_Yes-No Task_2020_Mar_23_1659_351,-1,False,1,YesNo3,2020_Mar_23_1659,Yes-No Task,
Yes-No Task,36,0,36,0,6,-1,Correct Rejection,0,0,0.5488576999632642,False,-1,stimulus_YesNo3_Yes-No Task_2020_Mar_23_1659_352,-1,False,1,YesNo3,2020_Mar_23_1659,Yes-No Task,
Yes-No Task,37,0,37,0,6,-1,Correct Rejection,0,0,0.4838637999491766,False,-1,stimulus_YesNo3_Yes-No Task_2020_Mar_23_1659_353,-1,False,1,YesNo3,2020_Mar_23_1659,Yes-No Task,
Yes-No Task,38,0,38,0,6,-1,No Answer,2,2,-1,False,-1,stimulus_YesNo3_Yes-No Task_2020_Mar_23_1659_354,-1,False,1,YesNo3,2020_Mar_23_1659,Yes-No Task,
Yes-No Task,39,0,39,0,6,-1,Miss,0,1,0.2846592999994755,True,-1,stimulus_YesNo3_Yes-No Task_2020_Mar_23_1659_355,-1,False,1,YesNo3,2020_Mar_23_1659,Yes-No Task,
Yes-No Task,40,0,40,0,6,-1,Correct Rejection,0,0,0.45309759996598586,False,-1,stimulus_YesNo3_Yes-No Task_2020_Mar_23_1659_356,-1,False,1,YesNo3,2020_Mar_23_1659,Yes-No Task,
Yes-No Task,41,0,41,0,6,-1,Correct Rejection,0,0,0.5686509999795817,False,-1,stimulus_YesNo3_Yes-No Task_2020_Mar_23_1659_357,-1,False,1,YesNo3,2020_Mar_23_1659,Yes-No Task,
Yes-No Task,42,0,42,0,6,-1,Hit,1,1,0.46786519995657727,True,-1,stimulus_YesNo3_Yes-No Task_2020_Mar_23_1659_358,-1,False,1,YesNo3,2020_Mar_23_1659,Yes-No Task,
Yes-No Task,43,0,43,0,6,-1,False Alarm,1,0,0.35052510001696646,False,-1,stimulus_YesNo3_Yes-No Task_2020_Mar_23_1659_359,-1,False,1,YesNo3,2020_Mar_23_1659,Yes-No Task,
Yes-No Task,44,0,44,0,6,-1,Hit,1,1,0.3353439999627881,True,-1,stimulus_YesNo3_Yes-No Task_2020_Mar_23_1659_360,-1,False,1,YesNo3,2020_Mar_23_1659,Yes-No Task,
Yes-No Task,0,0,0,0,1,-1,Miss,0,1,0.38369909999892116,True,-1,stimulus_YesNo3_Yes-No Task_2020_Mar_23_1659_361,-1,False,1,YesNo3,2020_Mar_23_1659,Yes-No Task,
Yes-No Task,1,0,1,0,1,-1,Miss,0,1,0.36764620000030845,True,-1,stimulus_YesNo3_Yes-No Task_2020_Mar_23_1659_362,-1,False,1,YesNo3,2020_Mar_23_1659,Yes-No Task,
Yes-No Task,2,0,2,0,1,-1,Miss,0,1,0.43480640003690496,True,-1,stimulus_YesNo3_Yes-No Task_2020_Mar_23_1659_363,-1,False,1,YesNo3,2020_Mar_23_1659,Yes-No Task,
Yes-No Task,3,0,3,0,1,-1,Correct Rejection,0,0,0.5020975000225008,False,-1,stimulus_YesNo3_Yes-No Task_2020_Mar_23_1659_364,-1,False,1,YesNo3,2020_Mar_23_1659,Yes-No Task,
Yes-No Task,4,0,4,0,1,-1,Hit,1,1,0.40138900000602007,True,-1,stimulus_YesNo3_Yes-No Task_2020_Mar_23_1659_365,-1,False,1,YesNo3,2020_Mar_23_1659,Yes-No Task,
Yes-No Task,5,0,5,0,1,-1,Miss,0,1,0.5837357999989763,True,-1,stimulus_YesNo3_Yes-No Task_2020_Mar_23_1659_366,-1,False,1,YesNo3,2020_Mar_23_1659,Yes-No Task,
Yes-No Task,6,0,6,0,1,-1,Hit,1,1,0.35121429996797815,True,-1,stimulus_YesNo3_Yes-No Task_2020_Mar_23_1659_367,-1,False,1,YesNo3,2020_Mar_23_1659,Yes-No Task,
Yes-No Task,7,0,7,0,1,-1,False Alarm,1,0,0.48469959996873513,False,-1,stimulus_YesNo3_Yes-No Task_2020_Mar_23_1659_368,-1,False,1,YesNo3,2020_Mar_23_1659,Yes-No Task,
Yes-No Task,8,0,8,0,1,-1,Miss,0,1,0.501677300024312,True,-1,stimulus_YesNo3_Yes-No Task_2020_Mar_23_1659_369,-1,False,1,YesNo3,2020_Mar_23_1659,Yes-No Task,
Yes-No Task,9,0,9,0,1,-1,False Alarm,1,0,0.15267280000261962,False,-1,stimulus_YesNo3_Yes-No Task_2020_Mar_23_1659_370,-1,False,1,YesNo3,2020_Mar_23_1659,Yes-No Task,
Yes-No Task,10,0,10,0,1,-1,Correct Rejection,0,0,0.4179576000315137,False,-1,stimulus_YesNo3_Yes-No Task_2020_Mar_23_1659_371,-1,False,1,YesNo3,2020_Mar_23_1659,Yes-No Task,
Yes-No Task,11,0,11,0,1,-1,Miss,0,1,0.35256550001213327,True,-1,stimulus_YesNo3_Yes-No Task_2020_Mar_23_1659_372,-1,False,1,YesNo3,2020_Mar_23_1659,Yes-No Task,
Yes-No Task,12,0,12,0,1,-1,Hit,1,1,0.018696899991482496,True,-1,stimulus_YesNo3_Yes-No Task_2020_Mar_23_1659_373,-1,False,1,YesNo3,2020_Mar_23_1659,Yes-No Task,
Yes-No Task,13,0,13,0,1,-1,Hit,1,1,0.2347825999604538,True,-1,stimulus_YesNo3_Yes-No Task_2020_Mar_23_1659_374,-1,False,1,YesNo3,2020_Mar_23_1659,Yes-No Task,
Yes-No Task,14,0,14,0,1,-1,Hit,1,1,0.23501070000929758,True,-1,stimulus_YesNo3_Yes-No Task_2020_Mar_23_1659_375,-1,False,1,YesNo3,2020_Mar_23_1659,Yes-No Task,
Yes-No Task,15,0,15,0,1,-1,Hit,1,1,0.10044279997237027,True,-1,stimulus_YesNo3_Yes-No Task_2020_Mar_23_1659_376,-1,False,1,YesNo3,2020_Mar_23_1659,Yes-No Task,
Yes-No Task,16,0,16,0,1,-1,False Alarm,1,0,0.11462490004487336,False,-1,stimulus_YesNo3_Yes-No Task_2020_Mar_23_1659_377,-1,False,1,YesNo3,2020_Mar_23_1659,Yes-No Task,
Yes-No Task,17,0,17,0,1,-1,Miss,0,1,0.11916230001952499,True,-1,stimulus_YesNo3_Yes-No Task_2020_Mar_23_1659_378,-1,False,1,YesNo3,2020_Mar_23_1659,Yes-No Task,
Yes-No Task,18,0,18,0,1,-1,Hit,1,1,0.10149959998670965,True,-1,stimulus_YesNo3_Yes-No Task_2020_Mar_23_1659_379,-1,False,1,YesNo3,2020_Mar_23_1659,Yes-No Task,
Yes-No Task,19,0,19,0,1,-1,False Alarm,1,0,0.10177469998598099,False,-1,stimulus_YesNo3_Yes-No Task_2020_Mar_23_1659_380,-1,False,1,YesNo3,2020_Mar_23_1659,Yes-No Task,
Yes-No Task,20,0,20,0,1,-1,Miss,0,1,0.016733800002839416,True,-1,stimulus_YesNo3_Yes-No Task_2020_Mar_23_1659_381,-1,False,1,YesNo3,2020_Mar_23_1659,Yes-No Task,
Yes-No Task,21,0,21,0,1,-1,Correct Rejection,0,0,0.3188108000322245,False,-1,stimulus_YesNo3_Yes-No Task_2020_Mar_23_1659_382,-1,False,1,YesNo3,2020_Mar_23_1659,Yes-No Task,
Yes-No Task,22,0,22,0,1,-1,Miss,0,1,0.20175830001244321,True,-1,stimulus_YesNo3_Yes-No Task_2020_Mar_23_1659_383,-1,False,1,YesNo3,2020_Mar_23_1659,Yes-No Task,
Yes-No Task,23,0,23,0,1,-1,Correct Rejection,0,0,0.4323629999998957,False,-1,stimulus_YesNo3_Yes-No Task_2020_Mar_23_1659_384,-1,False,1,YesNo3,2020_Mar_23_1659,Yes-No Task,
Yes-No Task,24,0,24,0,1,-1,Miss,0,1,0.3362970000016503,True,-1,stimulus_YesNo3_Yes-No Task_2020_Mar_23_1659_385,-1,False,1,YesNo3,2020_Mar_23_1659,Yes-No Task,
Yes-No Task,25,0,25,0,1,-1,Hit,1,1,0.39003589999629185,True,-1,stimulus_YesNo3_Yes-No Task_2020_Mar_23_1659_386,-1,False,1,YesNo3,2020_Mar_23_1659,Yes-No Task,
Yes-No Task,26,0,26,0,1,-1,Miss,0,1,0.5199335000361316,True,-1,stimulus_YesNo3_Yes-No Task_2020_Mar_23_1659_387,-1,False,1,YesNo3,2020_Mar_23_1659,Yes-No Task,
Yes-No Task,27,0,27,0,1,-1,Miss,0,1,0.41799740004353225,True,-1,stimulus_YesNo3_Yes-No Task_2020_Mar_23_1659_388,-1,False,1,YesNo3,2020_Mar_23_1659,Yes-No Task,
Yes-No Task,28,0,28,0,1,-1,Miss,0,1,0.4679496000171639,True,-1,stimulus_YesNo3_Yes-No Task_2020_Mar_23_1659_389,-1,False,1,YesNo3,2020_Mar_23_1659,Yes-No Task,
Yes-No Task,29,0,29,0,1,-1,Miss,0,1,0.3816367000108585,True,-1,stimulus_YesNo3_Yes-No Task_2020_Mar_23_1659_390,-1,False,1,YesNo3,2020_Mar_23_1659,Yes-No Task,
Yes-No Task,30,0,30,0,1,-1,Miss,0,1,0.38682559999870136,True,-1,stimulus_YesNo3_Yes-No Task_2020_Mar_23_1659_391,-1,False,1,YesNo3,2020_Mar_23_1659,Yes-No Task,
Yes-No Task,31,0,31,0,1,-1,Miss,0,1,0.4206601000041701,True,-1,stimulus_YesNo3_Yes-No Task_2020_Mar_23_1659_392,-1,False,1,YesNo3,2020_Mar_23_1659,Yes-No Task,
Yes-No Task,32,0,32,0,1,-1,Correct Rejection,0,0,0.350737200002186,False,-1,stimulus_YesNo3_Yes-No Task_2020_Mar_23_1659_393,-1,False,1,YesNo3,2020_Mar_23_1659,Yes-No Task,
Yes-No Task,33,0,33,0,1,-1,Correct Rejection,0,0,0.4195276999962516,False,-1,stimulus_YesNo3_Yes-No Task_2020_Mar_23_1659_394,-1,False,1,YesNo3,2020_Mar_23_1659,Yes-No Task,
Yes-No Task,34,0,34,0,1,-1,Miss,0,1,0.42061969998758286,True,-1,stimulus_YesNo3_Yes-No Task_2020_Mar_23_1659_395,-1,False,1,YesNo3,2020_Mar_23_1659,Yes-No Task,
Yes-No Task,35,0,35,0,1,-1,Hit,1,1,0.33630050002830103,True,-1,stimulus_YesNo3_Yes-No Task_2020_Mar_23_1659_396,-1,False,1,YesNo3,2020_Mar_23_1659,Yes-No Task,
Yes-No Task,36,0,36,0,1,-1,Hit,1,1,0.40104849997442216,True,-1,stimulus_YesNo3_Yes-No Task_2020_Mar_23_1659_397,-1,False,1,YesNo3,2020_Mar_23_1659,Yes-No Task,
Yes-No Task,37,0,37,0,1,-1,Hit,1,1,0.30156130000250414,True,-1,stimulus_YesNo3_Yes-No Task_2020_Mar_23_1659_398,-1,False,1,YesNo3,2020_Mar_23_1659,Yes-No Task,
Yes-No Task,38,0,38,0,1,-1,Correct Rejection,0,0,0.20339869998861104,False,-1,stimulus_YesNo3_Yes-No Task_2020_Mar_23_1659_399,-1,False,1,YesNo3,2020_Mar_23_1659,Yes-No Task,
Yes-No Task,39,0,39,0,1,-1,Miss,0,1,0.39991430001100525,True,-1,stimulus_YesNo3_Yes-No Task_2020_Mar_23_1659_400,-1,False,1,YesNo3,2020_Mar_23_1659,Yes-No Task,
Yes-No Task,40,0,40,0,1,-1,False Alarm,1,0,0.18665509996935725,False,-1,stimulus_YesNo3_Yes-No Task_2020_Mar_23_1659_401,-1,False,1,YesNo3,2020_Mar_23_1659,Yes-No Task,
Yes-No Task,41,0,41,0,1,-1,Correct Rejection,0,0,0.13481349998619407,False,-1,stimulus_YesNo3_Yes-No Task_2020_Mar_23_1659_402,-1,False,1,YesNo3,2020_Mar_23_1659,Yes-No Task,
Yes-No Task,42,0,42,0,1,-1,Correct Rejection,0,0,0.38459780003177,False,-1,stimulus_YesNo3_Yes-No Task_2020_Mar_23_1659_403,-1,False,1,YesNo3,2020_Mar_23_1659,Yes-No Task,
Yes-No Task,43,0,43,0,1,-1,False Alarm,1,0,0.43570050003472716,False,-1,stimulus_YesNo3_Yes-No Task_2020_Mar_23_1659_404,-1,False,1,YesNo3,2020_Mar_23_1659,Yes-No Task,
Yes-No Task,44,0,44,0,1,-1,Miss,0,1,0.20044449996203184,True,-1,stimulus_YesNo3_Yes-No Task_2020_Mar_23_1659_405,-1,False,1,YesNo3,2020_Mar_23_1659,Yes-No Task,
Yes-No Task,0,0,0,0,7,-1,Miss,0,1,0.467929600039497,True,-1,stimulus_YesNo3_Yes-No Task_2020_Mar_23_1659_406,-1,False,1,YesNo3,2020_Mar_23_1659,Yes-No Task,
Yes-No Task,1,0,1,0,7,-1,Miss,0,1,0.2853109000134282,True,-1,stimulus_YesNo3_Yes-No Task_2020_Mar_23_1659_407,-1,False,1,YesNo3,2020_Mar_23_1659,Yes-No Task,
Yes-No Task,2,0,2,0,7,-1,No Answer,2,2,-1,True,-1,stimulus_YesNo3_Yes-No Task_2020_Mar_23_1659_408,-1,False,1,YesNo3,2020_Mar_23_1659,Yes-No Task,
Yes-No Task,3,0,3,0,7,-1,Correct Rejection,0,0,0.21943419997114688,False,-1,stimulus_YesNo3_Yes-No Task_2020_Mar_23_1659_409,-1,False,1,YesNo3,2020_Mar_23_1659,Yes-No Task,
Yes-No Task,4,0,4,0,7,-1,Correct Rejection,0,0,0.3509772999677807,False,-1,stimulus_YesNo3_Yes-No Task_2020_Mar_23_1659_410,-1,False,1,YesNo3,2020_Mar_23_1659,Yes-No Task,
Yes-No Task,5,0,5,0,7,-1,Correct Rejection,0,0,0.3853370000142604,False,-1,stimulus_YesNo3_Yes-No Task_2020_Mar_23_1659_411,-1,False,1,YesNo3,2020_Mar_23_1659,Yes-No Task,
Yes-No Task,6,0,6,0,7,-1,Hit,1,1,0.41793920000782236,True,-1,stimulus_YesNo3_Yes-No Task_2020_Mar_23_1659_412,-1,False,1,YesNo3,2020_Mar_23_1659,Yes-No Task,
Yes-No Task,7,0,7,0,7,-1,Hit,1,1,0.28373859997373074,True,-1,stimulus_YesNo3_Yes-No Task_2020_Mar_23_1659_413,-1,False,1,YesNo3,2020_Mar_23_1659,Yes-No Task,
Yes-No Task,8,0,8,0,7,-1,Hit,1,1,0.28488640004070476,True,-1,stimulus_YesNo3_Yes-No Task_2020_Mar_23_1659_414,-1,False,1,YesNo3,2020_Mar_23_1659,Yes-No Task,
Yes-No Task,9,0,9,0,7,-1,False Alarm,1,0,0.5179237000411376,False,-1,stimulus_YesNo3_Yes-No Task_2020_Mar_23_1659_415,-1,False,1,YesNo3,2020_Mar_23_1659,Yes-No Task,
Yes-No Task,10,0,10,0,7,-1,Correct Rejection,0,0,0.167164699989371,False,-1,stimulus_YesNo3_Yes-No Task_2020_Mar_23_1659_416,-1,False,1,YesNo3,2020_Mar_23_1659,Yes-No Task,
Yes-No Task,11,0,11,0,7,-1,Hit,1,1,0.2672249000170268,True,-1,stimulus_YesNo3_Yes-No Task_2020_Mar_23_1659_417,-1,False,1,YesNo3,2020_Mar_23_1659,Yes-No Task,
Yes-No Task,12,0,12,0,7,-1,Hit,1,1,0.2683461000560783,True,-1,stimulus_YesNo3_Yes-No Task_2020_Mar_23_1659_418,-1,False,1,YesNo3,2020_Mar_23_1659,Yes-No Task,
Yes-No Task,13,0,13,0,7,-1,Miss,0,1,0.29998860001796857,True,-1,stimulus_YesNo3_Yes-No Task_2020_Mar_23_1659_419,-1,False,1,YesNo3,2020_Mar_23_1659,Yes-No Task,
Yes-No Task,14,0,14,0,7,-1,False Alarm,1,0,0.2176447000238113,False,-1,stimulus_YesNo3_Yes-No Task_2020_Mar_23_1659_420,-1,False,1,YesNo3,2020_Mar_23_1659,Yes-No Task,
Yes-No Task,15,0,15,0,7,-1,Miss,0,1,0.1823910999810323,True,-1,stimulus_YesNo3_Yes-No Task_2020_Mar_23_1659_421,-1,False,1,YesNo3,2020_Mar_23_1659,Yes-No Task,
Yes-No Task,16,0,16,0,7,-1,Hit,1,1,0.3675795000162907,True,-1,stimulus_YesNo3_Yes-No Task_2020_Mar_23_1659_422,-1,False,1,YesNo3,2020_Mar_23_1659,Yes-No Task,
Yes-No Task,17,0,17,0,7,-1,Correct Rejection,0,0,0.5189094999805093,False,-1,stimulus_YesNo3_Yes-No Task_2020_Mar_23_1659_423,-1,False,1,YesNo3,2020_Mar_23_1659,Yes-No Task,
Yes-No Task,18,0,18,0,7,-1,Correct Rejection,0,0,0.48522770003182814,False,-1,stimulus_YesNo3_Yes-No Task_2020_Mar_23_1659_424,-1,False,1,YesNo3,2020_Mar_23_1659,Yes-No Task,
Yes-No Task,19,0,19,0,7,-1,Correct Rejection,0,0,0.33395820000441745,False,-1,stimulus_YesNo3_Yes-No Task_2020_Mar_23_1659_425,-1,False,1,YesNo3,2020_Mar_23_1659,Yes-No Task,
Yes-No Task,20,0,20,0,7,-1,Miss,0,1,0.43488249997608364,True,-1,stimulus_YesNo3_Yes-No Task_2020_Mar_23_1659_426,-1,False,1,YesNo3,2020_Mar_23_1659,Yes-No Task,
Yes-No Task,21,0,21,0,7,-1,Hit,1,1,0.2679694999824278,True,-1,stimulus_YesNo3_Yes-No Task_2020_Mar_23_1659_427,-1,False,1,YesNo3,2020_Mar_23_1659,Yes-No Task,
Yes-No Task,22,0,22,0,7,-1,Correct Rejection,0,0,0.46574940002756193,False,-1,stimulus_YesNo3_Yes-No Task_2020_Mar_23_1659_428,-1,False,1,YesNo3,2020_Mar_23_1659,Yes-No Task,
Yes-No Task,23,0,23,0,7,-1,Hit,1,1,0.43478199996752664,True,-1,stimulus_YesNo3_Yes-No Task_2020_Mar_23_1659_429,-1,False,1,YesNo3,2020_Mar_23_1659,Yes-No Task,
Yes-No Task,24,0,24,0,7,-1,Miss,0,1,0.38463869999395683,True,-1,stimulus_YesNo3_Yes-No Task_2020_Mar_23_1659_430,-1,False,1,YesNo3,2020_Mar_23_1659,Yes-No Task,
Yes-No Task,25,0,25,0,7,-1,Hit,1,1,0.3998835000093095,True,-1,stimulus_YesNo3_Yes-No Task_2020_Mar_23_1659_431,-1,False,1,YesNo3,2020_Mar_23_1659,Yes-No Task,
Yes-No Task,26,0,26,0,7,-1,Hit,1,1,0.36578280001413077,True,-1,stimulus_YesNo3_Yes-No Task_2020_Mar_23_1659_432,-1,False,1,YesNo3,2020_Mar_23_1659,Yes-No Task,
Yes-No Task,27,0,27,0,7,-1,Hit,1,1,0.3506881999783218,True,-1,stimulus_YesNo3_Yes-No Task_2020_Mar_23_1659_433,-1,False,1,YesNo3,2020_Mar_23_1659,Yes-No Task,
Yes-No Task,28,0,28,0,7,-1,Hit,1,1,0.35321039997506887,True,-1,stimulus_YesNo3_Yes-No Task_2020_Mar_23_1659_434,-1,False,1,YesNo3,2020_Mar_23_1659,Yes-No Task,
Yes-No Task,29,0,29,0,7,-1,Hit,1,1,0.31761020002886653,True,-1,stimulus_YesNo3_Yes-No Task_2020_Mar_23_1659_435,-1,False,1,YesNo3,2020_Mar_23_1659,Yes-No Task,
Yes-No Task,30,0,30,0,7,-1,Hit,1,1,0.6145522000151686,True,-1,stimulus_YesNo3_Yes-No Task_2020_Mar_23_1659_436,-1,False,1,YesNo3,2020_Mar_23_1659,Yes-No Task,
Yes-No Task,31,0,31,0,7,-1,False Alarm,1,0,0.48435220000101253,False,-1,stimulus_YesNo3_Yes-No Task_2020_Mar_23_1659_437,-1,False,1,YesNo3,2020_Mar_23_1659,Yes-No Task,
Yes-No Task,32,0,32,0,7,-1,Miss,0,1,0.35032299999147654,True,-1,stimulus_YesNo3_Yes-No Task_2020_Mar_23_1659_438,-1,False,1,YesNo3,2020_Mar_23_1659,Yes-No Task,
Yes-No Task,33,0,33,0,7,-1,Correct Rejection,0,0,0.45281960000284016,False,-1,stimulus_YesNo3_Yes-No Task_2020_Mar_23_1659_439,-1,False,1,YesNo3,2020_Mar_23_1659,Yes-No Task,
Yes-No Task,34,0,34,0,7,-1,Hit,1,1,0.38676399999530986,True,-1,stimulus_YesNo3_Yes-No Task_2020_Mar_23_1659_440,-1,False,1,YesNo3,2020_Mar_23_1659,Yes-No Task,
Yes-No Task,35,0,35,0,7,-1,Hit,1,1,0.36787590000312775,True,-1,stimulus_YesNo3_Yes-No Task_2020_Mar_23_1659_441,-1,False,1,YesNo3,2020_Mar_23_1659,Yes-No Task,
Yes-No Task,36,0,36,0,7,-1,Hit,1,1,0.28442449995782226,True,-1,stimulus_YesNo3_Yes-No Task_2020_Mar_23_1659_442,-1,False,1,YesNo3,2020_Mar_23_1659,Yes-No Task,
Yes-No Task,37,0,37,0,7,-1,False Alarm,1,0,0.2672249000170268,False,-1,stimulus_YesNo3_Yes-No Task_2020_Mar_23_1659_443,-1,False,1,YesNo3,2020_Mar_23_1659,Yes-No Task,
Yes-No Task,38,0,38,0,7,-1,Correct Rejection,0,0,0.3666186999762431,False,-1,stimulus_YesNo3_Yes-No Task_2020_Mar_23_1659_444,-1,False,1,YesNo3,2020_Mar_23_1659,Yes-No Task,
Yes-No Task,39,0,39,0,7,-1,Hit,1,1,0.40066649997606874,True,-1,stimulus_YesNo3_Yes-No Task_2020_Mar_23_1659_445,-1,False,1,YesNo3,2020_Mar_23_1659,Yes-No Task,
Yes-No Task,40,0,40,0,7,-1,False Alarm,1,0,0.3210526999901049,False,-1,stimulus_YesNo3_Yes-No Task_2020_Mar_23_1659_446,-1,False,1,YesNo3,2020_Mar_23_1659,Yes-No Task,
Yes-No Task,41,0,41,0,7,-1,Miss,0,1,0.38381979998666793,True,-1,stimulus_YesNo3_Yes-No Task_2020_Mar_23_1659_447,-1,False,1,YesNo3,2020_Mar_23_1659,Yes-No Task,
Yes-No Task,42,0,42,0,7,-1,Correct Rejection,0,0,0.42148429999360815,False,-1,stimulus_YesNo3_Yes-No Task_2020_Mar_23_1659_448,-1,False,1,YesNo3,2020_Mar_23_1659,Yes-No Task,
Yes-No Task,43,0,43,0,7,-1,Hit,1,1,0.43711249995976686,True,-1,stimulus_YesNo3_Yes-No Task_2020_Mar_23_1659_449,-1,False,1,YesNo3,2020_Mar_23_1659,Yes-No Task,
Yes-No Task,44,0,44,0,7,-1,Hit,1,1,0.35446120001142845,True,-1,stimulus_YesNo3_Yes-No Task_2020_Mar_23_1659_450,-1,False,1,YesNo3,2020_Mar_23_1659,Yes-No Task,
Yes-No Task,0,0,0,0,3,-1,Miss,0,1,0.45216159999836236,True,-1,stimulus_YesNo3_Yes-No Task_2020_Mar_23_1659_451,-1,False,1,YesNo3,2020_Mar_23_1659,Yes-No Task,
Yes-No Task,1,0,1,0,3,-1,Correct Rejection,0,0,0.3151497999788262,False,-1,stimulus_YesNo3_Yes-No Task_2020_Mar_23_1659_452,-1,False,1,YesNo3,2020_Mar_23_1659,Yes-No Task,
Yes-No Task,2,0,2,0,3,-1,Miss,0,1,0.3832583000184968,True,-1,stimulus_YesNo3_Yes-No Task_2020_Mar_23_1659_453,-1,False,1,YesNo3,2020_Mar_23_1659,Yes-No Task,
Yes-No Task,3,0,3,0,3,-1,Hit,1,1,0.3339036999968812,True,-1,stimulus_YesNo3_Yes-No Task_2020_Mar_23_1659_454,-1,False,1,YesNo3,2020_Mar_23_1659,Yes-No Task,
Yes-No Task,4,0,4,0,3,-1,False Alarm,1,0,0.3503936000051908,False,-1,stimulus_YesNo3_Yes-No Task_2020_Mar_23_1659_455,-1,False,1,YesNo3,2020_Mar_23_1659,Yes-No Task,
Yes-No Task,5,0,5,0,3,-1,Miss,0,1,0.2680553999962285,True,-1,stimulus_YesNo3_Yes-No Task_2020_Mar_23_1659_456,-1,False,1,YesNo3,2020_Mar_23_1659,Yes-No Task,
Yes-No Task,6,0,6,0,3,-1,Correct Rejection,0,0,0.518206899985671,False,-1,stimulus_YesNo3_Yes-No Task_2020_Mar_23_1659_457,-1,False,1,YesNo3,2020_Mar_23_1659,Yes-No Task,
Yes-No Task,7,0,7,0,3,-1,Miss,0,1,0.3679292000015266,True,-1,stimulus_YesNo3_Yes-No Task_2020_Mar_23_1659_458,-1,False,1,YesNo3,2020_Mar_23_1659,Yes-No Task,
Yes-No Task,8,0,8,0,3,-1,Hit,1,1,0.20061499997973442,True,-1,stimulus_YesNo3_Yes-No Task_2020_Mar_23_1659_459,-1,False,1,YesNo3,2020_Mar_23_1659,Yes-No Task,
Yes-No Task,9,0,9,0,3,-1,Hit,1,1,0.23391049995552748,True,-1,stimulus_YesNo3_Yes-No Task_2020_Mar_23_1659_460,-1,False,1,YesNo3,2020_Mar_23_1659,Yes-No Task,
Yes-No Task,10,0,10,0,3,-1,Hit,1,1,0.3511499000014737,True,-1,stimulus_YesNo3_Yes-No Task_2020_Mar_23_1659_461,-1,False,1,YesNo3,2020_Mar_23_1659,Yes-No Task,
Yes-No Task,11,0,11,0,3,-1,Hit,1,1,0.3672511000186205,True,-1,stimulus_YesNo3_Yes-No Task_2020_Mar_23_1659_462,-1,False,1,YesNo3,2020_Mar_23_1659,Yes-No Task,
Yes-No Task,12,0,12,0,3,-1,Hit,1,1,0.36770180001622066,True,-1,stimulus_YesNo3_Yes-No Task_2020_Mar_23_1659_463,-1,False,1,YesNo3,2020_Mar_23_1659,Yes-No Task,
Yes-No Task,13,0,13,0,3,-1,Hit,1,1,0.2702415999956429,True,-1,stimulus_YesNo3_Yes-No Task_2020_Mar_23_1659_464,-1,False,1,YesNo3,2020_Mar_23_1659,Yes-No Task,
Yes-No Task,14,0,14,0,3,-1,Hit,1,1,0.2506516000139527,True,-1,stimulus_YesNo3_Yes-No Task_2020_Mar_23_1659_465,-1,False,1,YesNo3,2020_Mar_23_1659,Yes-No Task,
Yes-No Task,15,0,15,0,3,-1,Hit,1,1,0.36651149997487664,True,-1,stimulus_YesNo3_Yes-No Task_2020_Mar_23_1659_466,-1,False,1,YesNo3,2020_Mar_23_1659,Yes-No Task,
Yes-No Task,16,0,16,0,3,-1,Hit,1,1,0.36821809998946264,True,-1,stimulus_YesNo3_Yes-No Task_2020_Mar_23_1659_467,-1,False,1,YesNo3,2020_Mar_23_1659,Yes-No Task,
Yes-No Task,17,0,17,0,3,-1,Correct Rejection,0,0,0.4204403000185266,False,-1,stimulus_YesNo3_Yes-No Task_2020_Mar_23_1659_468,-1,False,1,YesNo3,2020_Mar_23_1659,Yes-No Task,
Yes-No Task,18,0,18,0,3,-1,Miss,0,1,0.8316384999779984,True,-1,stimulus_YesNo3_Yes-No Task_2020_Mar_23_1659_469,-1,False,1,YesNo3,2020_Mar_23_1659,Yes-No Task,
Yes-No Task,19,0,19,0,3,-1,Hit,1,1,0.30039079999551177,True,-1,stimulus_YesNo3_Yes-No Task_2020_Mar_23_1659_470,-1,False,1,YesNo3,2020_Mar_23_1659,Yes-No Task,
Yes-No Task,20,0,20,0,3,-1,Correct Rejection,0,0,0.5208994999993593,False,-1,stimulus_YesNo3_Yes-No Task_2020_Mar_23_1659_471,-1,False,1,YesNo3,2020_Mar_23_1659,Yes-No Task,
Yes-No Task,21,0,21,0,3,-1,Correct Rejection,0,0,0.4031747999833897,False,-1,stimulus_YesNo3_Yes-No Task_2020_Mar_23_1659_472,-1,False,1,YesNo3,2020_Mar_23_1659,Yes-No Task,
Yes-No Task,22,0,22,0,3,-1,Miss,0,1,0.43235730001470074,True,-1,stimulus_YesNo3_Yes-No Task_2020_Mar_23_1659_473,-1,False,1,YesNo3,2020_Mar_23_1659,Yes-No Task,
Yes-No Task,23,0,23,0,3,-1,Correct Rejection,0,0,0.5367103000171483,False,-1,stimulus_YesNo3_Yes-No Task_2020_Mar_23_1659_474,-1,False,1,YesNo3,2020_Mar_23_1659,Yes-No Task,
Yes-No Task,24,0,24,0,3,-1,Hit,1,1,0.46923139999853447,True,-1,stimulus_YesNo3_Yes-No Task_2020_Mar_23_1659_475,-1,False,1,YesNo3,2020_Mar_23_1659,Yes-No Task,
Yes-No Task,25,0,25,0,3,-1,Hit,1,1,0.5511607000371441,True,-1,stimulus_YesNo3_Yes-No Task_2020_Mar_23_1659_476,-1,False,1,YesNo3,2020_Mar_23_1659,Yes-No Task,
Yes-No Task,26,0,26,0,3,-1,Correct Rejection,0,0,0.4675085000344552,False,-1,stimulus_YesNo3_Yes-No Task_2020_Mar_23_1659_477,-1,False,1,YesNo3,2020_Mar_23_1659,Yes-No Task,
Yes-No Task,27,0,27,0,3,-1,False Alarm,1,0,0.4680682999896817,False,-1,stimulus_YesNo3_Yes-No Task_2020_Mar_23_1659_478,-1,False,1,YesNo3,2020_Mar_23_1659,Yes-No Task,
Yes-No Task,28,0,28,0,3,-1,Miss,0,1,0.2674197000451386,True,-1,stimulus_YesNo3_Yes-No Task_2020_Mar_23_1659_479,-1,False,1,YesNo3,2020_Mar_23_1659,Yes-No Task,
Yes-No Task,29,0,29,0,3,-1,False Alarm,1,0,0.25101949996314943,False,-1,stimulus_YesNo3_Yes-No Task_2020_Mar_23_1659_480,-1,False,1,YesNo3,2020_Mar_23_1659,Yes-No Task,
Yes-No Task,30,0,30,0,3,-1,Correct Rejection,0,0,0.5175663999980316,False,-1,stimulus_YesNo3_Yes-No Task_2020_Mar_23_1659_481,-1,False,1,YesNo3,2020_Mar_23_1659,Yes-No Task,
Yes-No Task,31,0,31,0,3,-1,Correct Rejection,0,0,0.5522435000166297,False,-1,stimulus_YesNo3_Yes-No Task_2020_Mar_23_1659_482,-1,False,1,YesNo3,2020_Mar_23_1659,Yes-No Task,
Yes-No Task,32,0,32,0,3,-1,False Alarm,1,0,0.6176723999669775,False,-1,stimulus_YesNo3_Yes-No Task_2020_Mar_23_1659_483,-1,False,1,YesNo3,2020_Mar_23_1659,Yes-No Task,
Yes-No Task,33,0,33,0,3,-1,Miss,0,1,0.4007905999897048,True,-1,stimulus_YesNo3_Yes-No Task_2020_Mar_23_1659_484,-1,False,1,YesNo3,2020_Mar_23_1659,Yes-No Task,
Yes-No Task,34,0,34,0,3,-1,Miss,0,1,0.3830397999845445,True,-1,stimulus_YesNo3_Yes-No Task_2020_Mar_23_1659_485,-1,False,1,YesNo3,2020_Mar_23_1659,Yes-No Task,
Yes-No Task,35,0,35,0,3,-1,Correct Rejection,0,0,0.5032851999858394,False,-1,stimulus_YesNo3_Yes-No Task_2020_Mar_23_1659_486,-1,False,1,YesNo3,2020_Mar_23_1659,Yes-No Task,
Yes-No Task,36,0,36,0,3,-1,Correct Rejection,0,0,0.45162269996944815,False,-1,stimulus_YesNo3_Yes-No Task_2020_Mar_23_1659_487,-1,False,1,YesNo3,2020_Mar_23_1659,Yes-No Task,
Yes-No Task,37,0,37,0,3,-1,Miss,0,1,0.6005949999671429,True,-1,stimulus_YesNo3_Yes-No Task_2020_Mar_23_1659_488,-1,False,1,YesNo3,2020_Mar_23_1659,Yes-No Task,
Yes-No Task,38,0,38,0,3,-1,Miss,0,1,0.36725640000076964,True,-1,stimulus_YesNo3_Yes-No Task_2020_Mar_23_1659_489,-1,False,1,YesNo3,2020_Mar_23_1659,Yes-No Task,
Yes-No Task,39,0,39,0,3,-1,False Alarm,1,0,0.11717380001209676,False,-1,stimulus_YesNo3_Yes-No Task_2020_Mar_23_1659_490,-1,False,1,YesNo3,2020_Mar_23_1659,Yes-No Task,
Yes-No Task,40,0,40,0,3,-1,Miss,0,1,0.13355450000381097,True,-1,stimulus_YesNo3_Yes-No Task_2020_Mar_23_1659_491,-1,False,1,YesNo3,2020_Mar_23_1659,Yes-No Task,
Yes-No Task,41,0,41,0,3,-1,Correct Rejection,0,0,0.4336755000404082,False,-1,stimulus_YesNo3_Yes-No Task_2020_Mar_23_1659_492,-1,False,1,YesNo3,2020_Mar_23_1659,Yes-No Task,
Yes-No Task,42,0,42,0,3,-1,Miss,0,1,0.4021917000063695,True,-1,stimulus_YesNo3_Yes-No Task_2020_Mar_23_1659_493,-1,False,1,YesNo3,2020_Mar_23_1659,Yes-No Task,
Yes-No Task,43,0,43,0,3,-1,False Alarm,1,0,0.516362999973353,False,-1,stimulus_YesNo3_Yes-No Task_2020_Mar_23_1659_494,-1,False,1,YesNo3,2020_Mar_23_1659,Yes-No Task,
Yes-No Task,44,0,44,0,3,-1,Correct Rejection,0,0,0.3324084999621846,False,-1,stimulus_YesNo3_Yes-No Task_2020_Mar_23_1659_495,-1,False,1,YesNo3,2020_Mar_23_1659,Yes-No Task,
Yes-No Task,0,0,0,0,9,-1,Correct Rejection,0,0,0.35076500003924593,False,-1,stimulus_YesNo3_Yes-No Task_2020_Mar_23_1659_496,-1,False,1,YesNo3,2020_Mar_23_1659,Yes-No Task,
Yes-No Task,1,0,1,0,9,-1,Correct Rejection,0,0,0.3192443000152707,False,-1,stimulus_YesNo3_Yes-No Task_2020_Mar_23_1659_497,-1,False,1,YesNo3,2020_Mar_23_1659,Yes-No Task,
Yes-No Task,2,0,2,0,9,-1,Correct Rejection,0,0,0.3847241000039503,False,-1,stimulus_YesNo3_Yes-No Task_2020_Mar_23_1659_498,-1,False,1,YesNo3,2020_Mar_23_1659,Yes-No Task,
Yes-No Task,3,0,3,0,9,-1,Miss,0,1,0.3689782999572344,True,-1,stimulus_YesNo3_Yes-No Task_2020_Mar_23_1659_499,-1,False,1,YesNo3,2020_Mar_23_1659,Yes-No Task,
Yes-No Task,4,0,4,0,9,-1,Hit,1,1,0.33429139998042956,True,-1,stimulus_YesNo3_Yes-No Task_2020_Mar_23_1659_500,-1,False,1,YesNo3,2020_Mar_23_1659,Yes-No Task,
Yes-No Task,5,0,5,0,9,-1,Hit,1,1,0.4007141999900341,True,-1,stimulus_YesNo3_Yes-No Task_2020_Mar_23_1659_501,-1,False,1,YesNo3,2020_Mar_23_1659,Yes-No Task,
Yes-No Task,6,0,6,0,9,-1,Hit,1,1,0.3508369000046514,True,-1,stimulus_YesNo3_Yes-No Task_2020_Mar_23_1659_502,-1,False,1,YesNo3,2020_Mar_23_1659,Yes-No Task,
Yes-No Task,7,0,7,0,9,-1,Correct Rejection,0,0,0.43435820000013337,False,-1,stimulus_YesNo3_Yes-No Task_2020_Mar_23_1659_503,-1,False,1,YesNo3,2020_Mar_23_1659,Yes-No Task,
Yes-No Task,8,0,8,0,9,-1,Correct Rejection,0,0,0.3843261000001803,False,-1,stimulus_YesNo3_Yes-No Task_2020_Mar_23_1659_504,-1,False,1,YesNo3,2020_Mar_23_1659,Yes-No Task,
Yes-No Task,9,0,9,0,9,-1,Hit,1,1,0.3198141000466421,True,-1,stimulus_YesNo3_Yes-No Task_2020_Mar_23_1659_505,-1,False,1,YesNo3,2020_Mar_23_1659,Yes-No Task,
Yes-No Task,10,0,10,0,9,-1,Hit,1,1,0.31909589999122545,True,-1,stimulus_YesNo3_Yes-No Task_2020_Mar_23_1659_506,-1,False,1,YesNo3,2020_Mar_23_1659,Yes-No Task,
Yes-No Task,11,0,11,0,9,-1,False Alarm,1,0,0.25123930000700057,False,-1,stimulus_YesNo3_Yes-No Task_2020_Mar_23_1659_507,-1,False,1,YesNo3,2020_Mar_23_1659,Yes-No Task,
Yes-No Task,12,0,12,0,9,-1,Hit,1,1,0.4162631999934092,True,-1,stimulus_YesNo3_Yes-No Task_2020_Mar_23_1659_508,-1,False,1,YesNo3,2020_Mar_23_1659,Yes-No Task,
Yes-No Task,13,0,13,0,9,-1,Hit,1,1,0.3845100000035018,True,-1,stimulus_YesNo3_Yes-No Task_2020_Mar_23_1659_509,-1,False,1,YesNo3,2020_Mar_23_1659,Yes-No Task,
Yes-No Task,14,0,14,0,9,-1,Correct Rejection,0,0,0.38508689997252077,False,-1,stimulus_YesNo3_Yes-No Task_2020_Mar_23_1659_510,-1,False,1,YesNo3,2020_Mar_23_1659,Yes-No Task,
Yes-No Task,15,0,15,0,9,-1,Correct Rejection,0,0,0.5518269000458531,False,-1,stimulus_YesNo3_Yes-No Task_2020_Mar_23_1659_511,-1,False,1,YesNo3,2020_Mar_23_1659,Yes-No Task,
Yes-No Task,16,0,16,0,9,-1,Correct Rejection,0,0,0.48361659998772666,False,-1,stimulus_YesNo3_Yes-No Task_2020_Mar_23_1659_512,-1,False,1,YesNo3,2020_Mar_23_1659,Yes-No Task,
Yes-No Task,17,0,17,0,9,-1,Hit,1,1,0.4847081000334583,True,-1,stimulus_YesNo3_Yes-No Task_2020_Mar_23_1659_513,-1,False,1,YesNo3,2020_Mar_23_1659,Yes-No Task,
Yes-No Task,18,0,18,0,9,-1,Hit,1,1,0.4178945000167005,True,-1,stimulus_YesNo3_Yes-No Task_2020_Mar_23_1659_514,-1,False,1,YesNo3,2020_Mar_23_1659,Yes-No Task,
Yes-No Task,19,0,19,0,9,-1,Hit,1,1,0.36792240000795573,True,-1,stimulus_YesNo3_Yes-No Task_2020_Mar_23_1659_515,-1,False,1,YesNo3,2020_Mar_23_1659,Yes-No Task,
Yes-No Task,20,0,20,0,9,-1,Hit,1,1,0.351303499948699,True,-1,stimulus_YesNo3_Yes-No Task_2020_Mar_23_1659_516,-1,False,1,YesNo3,2020_Mar_23_1659,Yes-No Task,
Yes-No Task,21,0,21,0,9,-1,Correct Rejection,0,0,0.5340812999638729,False,-1,stimulus_YesNo3_Yes-No Task_2020_Mar_23_1659_517,-1,False,1,YesNo3,2020_Mar_23_1659,Yes-No Task,
Yes-No Task,22,0,22,0,9,-1,Correct Rejection,0,0,0.5030247999820858,False,-1,stimulus_YesNo3_Yes-No Task_2020_Mar_23_1659_518,-1,False,1,YesNo3,2020_Mar_23_1659,Yes-No Task,
Yes-No Task,23,0,23,0,9,-1,Correct Rejection,0,0,0.4010653999866918,False,-1,stimulus_YesNo3_Yes-No Task_2020_Mar_23_1659_519,-1,False,1,YesNo3,2020_Mar_23_1659,Yes-No Task,
Yes-No Task,24,0,24,0,9,-1,Hit,1,1,0.5521505999495275,True,-1,stimulus_YesNo3_Yes-No Task_2020_Mar_23_1659_520,-1,False,1,YesNo3,2020_Mar_23_1659,Yes-No Task,
Yes-No Task,25,0,25,0,9,-1,Correct Rejection,0,0,0.3362389000249095,False,-1,stimulus_YesNo3_Yes-No Task_2020_Mar_23_1659_521,-1,False,1,YesNo3,2020_Mar_23_1659,Yes-No Task,
Yes-No Task,26,0,26,0,9,-1,Hit,1,1,0.41962330002570525,True,-1,stimulus_YesNo3_Yes-No Task_2020_Mar_23_1659_522,-1,False,1,YesNo3,2020_Mar_23_1659,Yes-No Task,
Yes-No Task,27,0,27,0,9,-1,Correct Rejection,0,0,0.4181137999985367,False,-1,stimulus_YesNo3_Yes-No Task_2020_Mar_23_1659_523,-1,False,1,YesNo3,2020_Mar_23_1659,Yes-No Task,
Yes-No Task,28,0,28,0,9,-1,Miss,0,1,0.38485529995523393,True,-1,stimulus_YesNo3_Yes-No Task_2020_Mar_23_1659_524,-1,False,1,YesNo3,2020_Mar_23_1659,Yes-No Task,
Yes-No Task,29,0,29,0,9,-1,Hit,1,1,0.5186985000036657,True,-1,stimulus_YesNo3_Yes-No Task_2020_Mar_23_1659_525,-1,False,1,YesNo3,2020_Mar_23_1659,Yes-No Task,
Yes-No Task,30,0,30,0,9,-1,Hit,1,1,0.3029264999786392,True,-1,stimulus_YesNo3_Yes-No Task_2020_Mar_23_1659_526,-1,False,1,YesNo3,2020_Mar_23_1659,Yes-No Task,
Yes-No Task,31,0,31,0,9,-1,Hit,1,1,0.28491779998876154,True,-1,stimulus_YesNo3_Yes-No Task_2020_Mar_23_1659_527,-1,False,1,YesNo3,2020_Mar_23_1659,Yes-No Task,
Yes-No Task,32,0,32,0,9,-1,False Alarm,1,0,0.23290979996090755,False,-1,stimulus_YesNo3_Yes-No Task_2020_Mar_23_1659_528,-1,False,1,YesNo3,2020_Mar_23_1659,Yes-No Task,
Yes-No Task,33,0,33,0,9,-1,Correct Rejection,0,0,0.1182785999844782,False,-1,stimulus_YesNo3_Yes-No Task_2020_Mar_23_1659_529,-1,False,1,YesNo3,2020_Mar_23_1659,Yes-No Task,
Yes-No Task,34,0,34,0,9,-1,Correct Rejection,0,0,0.4059679000056349,False,-1,stimulus_YesNo3_Yes-No Task_2020_Mar_23_1659_530,-1,False,1,YesNo3,2020_Mar_23_1659,Yes-No Task,
Yes-No Task,35,0,35,0,9,-1,Hit,1,1,0.3691823999979533,True,-1,stimulus_YesNo3_Yes-No Task_2020_Mar_23_1659_531,-1,False,1,YesNo3,2020_Mar_23_1659,Yes-No Task,
Yes-No Task,36,0,36,0,9,-1,Correct Rejection,0,0,0.3510311000281945,False,-1,stimulus_YesNo3_Yes-No Task_2020_Mar_23_1659_532,-1,False,1,YesNo3,2020_Mar_23_1659,Yes-No Task,
Yes-No Task,37,0,37,0,9,-1,Correct Rejection,0,0,0.367422399984207,False,-1,stimulus_YesNo3_Yes-No Task_2020_Mar_23_1659_533,-1,False,1,YesNo3,2020_Mar_23_1659,Yes-No Task,
Yes-No Task,38,0,38,0,9,-1,Correct Rejection,0,0,0.38478109997231513,False,-1,stimulus_YesNo3_Yes-No Task_2020_Mar_23_1659_534,-1,False,1,YesNo3,2020_Mar_23_1659,Yes-No Task,
Yes-No Task,39,0,39,0,9,-1,Correct Rejection,0,0,0.5175339999841526,False,-1,stimulus_YesNo3_Yes-No Task_2020_Mar_23_1659_535,-1,False,1,YesNo3,2020_Mar_23_1659,Yes-No Task,
Yes-No Task,40,0,40,0,9,-1,Miss,0,1,0.30211679998319596,True,-1,stimulus_YesNo3_Yes-No Task_2020_Mar_23_1659_536,-1,False,1,YesNo3,2020_Mar_23_1659,Yes-No Task,
Yes-No Task,41,0,41,0,9,-1,Hit,1,1,0.4685611000168137,True,-1,stimulus_YesNo3_Yes-No Task_2020_Mar_23_1659_537,-1,False,1,YesNo3,2020_Mar_23_1659,Yes-No Task,
Yes-No Task,42,0,42,0,9,-1,Hit,1,1,0.3357998999999836,True,-1,stimulus_YesNo3_Yes-No Task_2020_Mar_23_1659_538,-1,False,1,YesNo3,2020_Mar_23_1659,Yes-No Task,
Yes-No Task,43,0,43,0,9,-1,Hit,1,1,0.4376341000315733,True,-1,stimulus_YesNo3_Yes-No Task_2020_Mar_23_1659_539,-1,False,1,YesNo3,2020_Mar_23_1659,Yes-No Task,
Yes-No Task,44,0,44,0,9,-1,Hit,1,1,0.36740559997269884,True,-1,stimulus_YesNo3_Yes-No Task_2020_Mar_23_1659_540,-1,False,1,YesNo3,2020_Mar_23_1659,Yes-No Task,
