Task,trials.thisRepN,trials.thisTrialN,trials.thisN,trials.thisIndex,signal_intensity,constant Value,response,Subject_Action,Stimulus_Present,time_response,signal_on_stimuluspos1,signal_on_stimuluspos2,stimulus_name_pos1,stimulus_name_pos2,random_intensity,session,participant,date,expName,
Yes-No Task,0,0,0,0,6.0,-1,Correct Rejection,0,0,0.4023079999997208,False,-1,stimulus_MaxB_Yes-No Task_2020_Feb_17_1142_1,-1,False,7,MaxB,2020_Feb_17_1142,Yes-No Task,
Yes-No Task,1,0,1,0,6.0,-1,False Alarm,1,0,0.48539549999986775,False,-1,stimulus_MaxB_Yes-No Task_2020_Feb_17_1142_2,-1,False,7,MaxB,2020_Feb_17_1142,Yes-No Task,
Yes-No Task,2,0,2,0,6.0,-1,Correct Rejection,0,0,0.6685048999997889,False,-1,stimulus_MaxB_Yes-No Task_2020_Feb_17_1142_3,-1,False,7,MaxB,2020_Feb_17_1142,Yes-No Task,
Yes-No Task,3,0,3,0,6.0,-1,Hit,1,1,0.5182199999999284,True,-1,stimulus_MaxB_Yes-No Task_2020_Feb_17_1142_4,-1,False,7,MaxB,2020_Feb_17_1142,Yes-No Task,
Yes-No Task,4,0,4,0,6.0,-1,False Alarm,1,0,0.5345291000003272,False,-1,stimulus_MaxB_Yes-No Task_2020_Feb_17_1142_5,-1,False,7,MaxB,2020_Feb_17_1142,Yes-No Task,
Yes-No Task,5,0,5,0,6.0,-1,Hit,1,1,0.4532822999999553,True,-1,stimulus_MaxB_Yes-No Task_2020_Feb_17_1142_6,-1,False,7,MaxB,2020_Feb_17_1142,Yes-No Task,
Yes-No Task,6,0,6,0,6.0,-1,Hit,1,1,0.5366469000000507,True,-1,stimulus_MaxB_Yes-No Task_2020_Feb_17_1142_7,-1,False,7,MaxB,2020_Feb_17_1142,Yes-No Task,
Yes-No Task,7,0,7,0,6.0,-1,Correct Rejection,0,0,0.4688666000001831,False,-1,stimulus_MaxB_Yes-No Task_2020_Feb_17_1142_8,-1,False,7,MaxB,2020_Feb_17_1142,Yes-No Task,
Yes-No Task,8,0,8,0,6.0,-1,Correct Rejection,0,0,0.8492116999996142,False,-1,stimulus_MaxB_Yes-No Task_2020_Feb_17_1142_9,-1,False,7,MaxB,2020_Feb_17_1142,Yes-No Task,
Yes-No Task,9,0,9,0,6.0,-1,False Alarm,1,0,0.6507104000002073,False,-1,stimulus_MaxB_Yes-No Task_2020_Feb_17_1142_10,-1,False,7,MaxB,2020_Feb_17_1142,Yes-No Task,
Yes-No Task,10,0,10,0,6.0,-1,No Answer,2,2,-1,True,-1,stimulus_MaxB_Yes-No Task_2020_Feb_17_1142_11,-1,False,7,MaxB,2020_Feb_17_1142,Yes-No Task,
Yes-No Task,11,0,11,0,6.0,-1,Hit,1,1,0.5010354000005464,True,-1,stimulus_MaxB_Yes-No Task_2020_Feb_17_1142_12,-1,False,7,MaxB,2020_Feb_17_1142,Yes-No Task,
Yes-No Task,12,0,12,0,6.0,-1,False Alarm,1,0,0.4381401000000551,False,-1,stimulus_MaxB_Yes-No Task_2020_Feb_17_1142_13,-1,False,7,MaxB,2020_Feb_17_1142,Yes-No Task,
Yes-No Task,13,0,13,0,6.0,-1,Correct Rejection,0,0,0.5013006000008318,False,-1,stimulus_MaxB_Yes-No Task_2020_Feb_17_1142_14,-1,False,7,MaxB,2020_Feb_17_1142,Yes-No Task,
Yes-No Task,14,0,14,0,6.0,-1,Correct Rejection,0,0,0.5213059999996403,False,-1,stimulus_MaxB_Yes-No Task_2020_Feb_17_1142_15,-1,False,7,MaxB,2020_Feb_17_1142,Yes-No Task,
Yes-No Task,15,0,15,0,6.0,-1,Correct Rejection,0,0,0.5174618000000919,False,-1,stimulus_MaxB_Yes-No Task_2020_Feb_17_1142_16,-1,False,7,MaxB,2020_Feb_17_1142,Yes-No Task,
Yes-No Task,16,0,16,0,6.0,-1,Hit,1,1,0.36947609999970155,True,-1,stimulus_MaxB_Yes-No Task_2020_Feb_17_1142_17,-1,False,7,MaxB,2020_Feb_17_1142,Yes-No Task,
Yes-No Task,17,0,17,0,6.0,-1,Hit,1,1,0.43626140000014857,True,-1,stimulus_MaxB_Yes-No Task_2020_Feb_17_1142_18,-1,False,7,MaxB,2020_Feb_17_1142,Yes-No Task,
Yes-No Task,18,0,18,0,6.0,-1,False Alarm,1,0,0.636320099999466,False,-1,stimulus_MaxB_Yes-No Task_2020_Feb_17_1142_19,-1,False,7,MaxB,2020_Feb_17_1142,Yes-No Task,
Yes-No Task,19,0,19,0,6.0,-1,False Alarm,1,0,0.4145699999999124,False,-1,stimulus_MaxB_Yes-No Task_2020_Feb_17_1142_20,-1,False,7,MaxB,2020_Feb_17_1142,Yes-No Task,
Yes-No Task,20,0,20,0,6.0,-1,False Alarm,1,0,0.4008144999997967,False,-1,stimulus_MaxB_Yes-No Task_2020_Feb_17_1142_21,-1,False,7,MaxB,2020_Feb_17_1142,Yes-No Task,
Yes-No Task,21,0,21,0,6.0,-1,Correct Rejection,0,0,0.5354772999999113,False,-1,stimulus_MaxB_Yes-No Task_2020_Feb_17_1142_22,-1,False,7,MaxB,2020_Feb_17_1142,Yes-No Task,
Yes-No Task,22,0,22,0,6.0,-1,No Answer,2,2,-1,False,-1,stimulus_MaxB_Yes-No Task_2020_Feb_17_1142_23,-1,False,7,MaxB,2020_Feb_17_1142,Yes-No Task,
Yes-No Task,23,0,23,0,6.0,-1,Hit,1,1,0.5361953999999969,True,-1,stimulus_MaxB_Yes-No Task_2020_Feb_17_1142_24,-1,False,7,MaxB,2020_Feb_17_1142,Yes-No Task,
Yes-No Task,24,0,24,0,6.0,-1,Hit,1,1,0.4339882000003854,True,-1,stimulus_MaxB_Yes-No Task_2020_Feb_17_1142_25,-1,False,7,MaxB,2020_Feb_17_1142,Yes-No Task,
Yes-No Task,25,0,25,0,6.0,-1,Hit,1,1,0.43831869999939954,True,-1,stimulus_MaxB_Yes-No Task_2020_Feb_17_1142_26,-1,False,7,MaxB,2020_Feb_17_1142,Yes-No Task,
Yes-No Task,26,0,26,0,6.0,-1,Correct Rejection,0,0,0.5352705999994214,False,-1,stimulus_MaxB_Yes-No Task_2020_Feb_17_1142_27,-1,False,7,MaxB,2020_Feb_17_1142,Yes-No Task,
Yes-No Task,27,0,27,0,6.0,-1,Hit,1,1,0.5491867000000639,True,-1,stimulus_MaxB_Yes-No Task_2020_Feb_17_1142_28,-1,False,7,MaxB,2020_Feb_17_1142,Yes-No Task,
Yes-No Task,28,0,28,0,6.0,-1,Hit,1,1,0.5171647999995912,True,-1,stimulus_MaxB_Yes-No Task_2020_Feb_17_1142_29,-1,False,7,MaxB,2020_Feb_17_1142,Yes-No Task,
Yes-No Task,29,0,29,0,6.0,-1,Hit,1,1,0.38397620000068855,True,-1,stimulus_MaxB_Yes-No Task_2020_Feb_17_1142_30,-1,False,7,MaxB,2020_Feb_17_1142,Yes-No Task,
Yes-No Task,30,0,30,0,6.0,-1,Hit,1,1,0.4706930000002103,True,-1,stimulus_MaxB_Yes-No Task_2020_Feb_17_1142_31,-1,False,7,MaxB,2020_Feb_17_1142,Yes-No Task,
Yes-No Task,31,0,31,0,6.0,-1,Miss,0,1,0.40092790000016976,True,-1,stimulus_MaxB_Yes-No Task_2020_Feb_17_1142_32,-1,False,7,MaxB,2020_Feb_17_1142,Yes-No Task,
Yes-No Task,32,0,32,0,6.0,-1,Hit,1,1,0.35478109999985463,True,-1,stimulus_MaxB_Yes-No Task_2020_Feb_17_1142_33,-1,False,7,MaxB,2020_Feb_17_1142,Yes-No Task,
Yes-No Task,33,0,33,0,6.0,-1,Correct Rejection,0,0,0.43393209999976534,False,-1,stimulus_MaxB_Yes-No Task_2020_Feb_17_1142_34,-1,False,7,MaxB,2020_Feb_17_1142,Yes-No Task,
Yes-No Task,34,0,34,0,6.0,-1,Hit,1,1,0.4847030000000814,True,-1,stimulus_MaxB_Yes-No Task_2020_Feb_17_1142_35,-1,False,7,MaxB,2020_Feb_17_1142,Yes-No Task,
Yes-No Task,35,0,35,0,6.0,-1,Correct Rejection,0,0,0.4693223999993279,False,-1,stimulus_MaxB_Yes-No Task_2020_Feb_17_1142_36,-1,False,7,MaxB,2020_Feb_17_1142,Yes-No Task,
Yes-No Task,36,0,36,0,6.0,-1,Hit,1,1,0.4178924999996525,True,-1,stimulus_MaxB_Yes-No Task_2020_Feb_17_1142_37,-1,False,7,MaxB,2020_Feb_17_1142,Yes-No Task,
Yes-No Task,37,0,37,0,6.0,-1,Correct Rejection,0,0,0.4163398999999117,False,-1,stimulus_MaxB_Yes-No Task_2020_Feb_17_1142_38,-1,False,7,MaxB,2020_Feb_17_1142,Yes-No Task,
Yes-No Task,38,0,38,0,6.0,-1,False Alarm,1,0,0.3857355000000098,False,-1,stimulus_MaxB_Yes-No Task_2020_Feb_17_1142_39,-1,False,7,MaxB,2020_Feb_17_1142,Yes-No Task,
Yes-No Task,39,0,39,0,6.0,-1,Correct Rejection,0,0,0.4279999999998836,False,-1,stimulus_MaxB_Yes-No Task_2020_Feb_17_1142_40,-1,False,7,MaxB,2020_Feb_17_1142,Yes-No Task,
