Task,trials.thisRepN,trials.thisTrialN,trials.thisN,trials.thisIndex,signal_intensity,constant Value,response,Subject_Action,Stimulus_Present,time_response,signal_on_stimuluspos1,signal_on_stimuluspos2,stimulus_name_pos1,stimulus_name_pos2,random_intensity,session,participant,date,expName,
Yes-No Task,0,0,0,0,12.0,-1,Correct Rejection,0,0,0.4840377000218723,False,-1,stimulus_TestYesNo_Yes-No Task_2020_Mar_05_2012_1,-1,False,12,TestYesNo,2020_Mar_05_2012,Yes-No Task,
Yes-No Task,1,0,1,0,12.0,-1,Miss,0,1,0.4338221999933012,True,-1,stimulus_TestYesNo_Yes-No Task_2020_Mar_05_2012_2,-1,False,12,TestYesNo,2020_Mar_05_2012,Yes-No Task,
Yes-No Task,2,0,2,0,12.0,-1,Hit,1,1,0.3833738999965135,True,-1,stimulus_TestYesNo_Yes-No Task_2020_Mar_05_2012_3,-1,False,12,TestYesNo,2020_Mar_05_2012,Yes-No Task,
Yes-No Task,3,0,3,0,12.0,-1,Hit,1,1,0.3850990999781061,True,-1,stimulus_TestYesNo_Yes-No Task_2020_Mar_05_2012_4,-1,False,12,TestYesNo,2020_Mar_05_2012,Yes-No Task,
Yes-No Task,4,0,4,0,12.0,-1,Correct Rejection,0,0,0.38480929998331703,False,-1,stimulus_TestYesNo_Yes-No Task_2020_Mar_05_2012_5,-1,False,12,TestYesNo,2020_Mar_05_2012,Yes-No Task,
Yes-No Task,5,0,5,0,12.0,-1,Correct Rejection,0,0,0.35158049999154173,False,-1,stimulus_TestYesNo_Yes-No Task_2020_Mar_05_2012_6,-1,False,12,TestYesNo,2020_Mar_05_2012,Yes-No Task,
Yes-No Task,6,0,6,0,12.0,-1,Correct Rejection,0,0,0.36804460000712425,False,-1,stimulus_TestYesNo_Yes-No Task_2020_Mar_05_2012_7,-1,False,12,TestYesNo,2020_Mar_05_2012,Yes-No Task,
Yes-No Task,7,0,7,0,12.0,-1,Correct Rejection,0,0,0.3350860000064131,False,-1,stimulus_TestYesNo_Yes-No Task_2020_Mar_05_2012_8,-1,False,12,TestYesNo,2020_Mar_05_2012,Yes-No Task,
Yes-No Task,8,0,8,0,12.0,-1,Hit,1,1,0.3506876000028569,True,-1,stimulus_TestYesNo_Yes-No Task_2020_Mar_05_2012_9,-1,False,12,TestYesNo,2020_Mar_05_2012,Yes-No Task,
Yes-No Task,9,0,9,0,12.0,-1,Hit,1,1,0.35010819998569787,True,-1,stimulus_TestYesNo_Yes-No Task_2020_Mar_05_2012_10,-1,False,12,TestYesNo,2020_Mar_05_2012,Yes-No Task,
Yes-No Task,10,0,10,0,12.0,-1,Correct Rejection,0,0,0.31782249998650514,False,-1,stimulus_TestYesNo_Yes-No Task_2020_Mar_05_2012_11,-1,False,12,TestYesNo,2020_Mar_05_2012,Yes-No Task,
Yes-No Task,11,0,11,0,12.0,-1,Correct Rejection,0,0,0.38418530000490136,False,-1,stimulus_TestYesNo_Yes-No Task_2020_Mar_05_2012_12,-1,False,12,TestYesNo,2020_Mar_05_2012,Yes-No Task,
Yes-No Task,12,0,12,0,12.0,-1,Hit,1,1,0.38453199999639764,True,-1,stimulus_TestYesNo_Yes-No Task_2020_Mar_05_2012_13,-1,False,12,TestYesNo,2020_Mar_05_2012,Yes-No Task,
Yes-No Task,13,0,13,0,12.0,-1,Correct Rejection,0,0,0.4841328999900725,False,-1,stimulus_TestYesNo_Yes-No Task_2020_Mar_05_2012_14,-1,False,12,TestYesNo,2020_Mar_05_2012,Yes-No Task,
Yes-No Task,14,0,14,0,12.0,-1,Hit,1,1,0.4010120999882929,True,-1,stimulus_TestYesNo_Yes-No Task_2020_Mar_05_2012_15,-1,False,12,TestYesNo,2020_Mar_05_2012,Yes-No Task,
Yes-No Task,15,0,15,0,12.0,-1,Hit,1,1,0.3340823999897111,True,-1,stimulus_TestYesNo_Yes-No Task_2020_Mar_05_2012_16,-1,False,12,TestYesNo,2020_Mar_05_2012,Yes-No Task,
Yes-No Task,16,0,16,0,12.0,-1,Hit,1,1,0.350383699988015,True,-1,stimulus_TestYesNo_Yes-No Task_2020_Mar_05_2012_17,-1,False,12,TestYesNo,2020_Mar_05_2012,Yes-No Task,
Yes-No Task,17,0,17,0,12.0,-1,False Alarm,1,0,0.2667549999896437,False,-1,stimulus_TestYesNo_Yes-No Task_2020_Mar_05_2012_18,-1,False,12,TestYesNo,2020_Mar_05_2012,Yes-No Task,
Yes-No Task,18,0,18,0,12.0,-1,Correct Rejection,0,0,0.26781920000212267,False,-1,stimulus_TestYesNo_Yes-No Task_2020_Mar_05_2012_19,-1,False,12,TestYesNo,2020_Mar_05_2012,Yes-No Task,
Yes-No Task,19,0,19,0,12.0,-1,Hit,1,1,0.3340297999966424,True,-1,stimulus_TestYesNo_Yes-No Task_2020_Mar_05_2012_20,-1,False,12,TestYesNo,2020_Mar_05_2012,Yes-No Task,
Yes-No Task,20,0,20,0,12.0,-1,Correct Rejection,0,0,0.36662350001279265,False,-1,stimulus_TestYesNo_Yes-No Task_2020_Mar_05_2012_21,-1,False,12,TestYesNo,2020_Mar_05_2012,Yes-No Task,
Yes-No Task,21,0,21,0,12.0,-1,Hit,1,1,0.3336495000112336,True,-1,stimulus_TestYesNo_Yes-No Task_2020_Mar_05_2012_22,-1,False,12,TestYesNo,2020_Mar_05_2012,Yes-No Task,
Yes-No Task,22,0,22,0,12.0,-1,Correct Rejection,0,0,0.40083879997837357,False,-1,stimulus_TestYesNo_Yes-No Task_2020_Mar_05_2012_23,-1,False,12,TestYesNo,2020_Mar_05_2012,Yes-No Task,
Yes-No Task,23,0,23,0,12.0,-1,Miss,0,1,0.3339203999785241,True,-1,stimulus_TestYesNo_Yes-No Task_2020_Mar_05_2012_24,-1,False,12,TestYesNo,2020_Mar_05_2012,Yes-No Task,
Yes-No Task,24,0,24,0,12.0,-1,False Alarm,1,0,0.0337168000114616,False,-1,stimulus_TestYesNo_Yes-No Task_2020_Mar_05_2012_25,-1,False,12,TestYesNo,2020_Mar_05_2012,Yes-No Task,
Yes-No Task,25,0,25,0,12.0,-1,Miss,0,1,0.13367229999857955,True,-1,stimulus_TestYesNo_Yes-No Task_2020_Mar_05_2012_26,-1,False,12,TestYesNo,2020_Mar_05_2012,Yes-No Task,
Yes-No Task,26,0,26,0,12.0,-1,False Alarm,1,0,0.10024860000703484,False,-1,stimulus_TestYesNo_Yes-No Task_2020_Mar_05_2012_27,-1,False,12,TestYesNo,2020_Mar_05_2012,Yes-No Task,
Yes-No Task,27,0,27,0,12.0,-1,Hit,1,1,0.2847874000144657,True,-1,stimulus_TestYesNo_Yes-No Task_2020_Mar_05_2012_28,-1,False,12,TestYesNo,2020_Mar_05_2012,Yes-No Task,
Yes-No Task,28,0,28,0,12.0,-1,Hit,1,1,0.417028299998492,True,-1,stimulus_TestYesNo_Yes-No Task_2020_Mar_05_2012_29,-1,False,12,TestYesNo,2020_Mar_05_2012,Yes-No Task,
Yes-No Task,29,0,29,0,12.0,-1,Hit,1,1,0.3005831000045873,True,-1,stimulus_TestYesNo_Yes-No Task_2020_Mar_05_2012_30,-1,False,12,TestYesNo,2020_Mar_05_2012,Yes-No Task,
Yes-No Task,30,0,30,0,12.0,-1,False Alarm,1,0,0.2672704999858979,False,-1,stimulus_TestYesNo_Yes-No Task_2020_Mar_05_2012_31,-1,False,12,TestYesNo,2020_Mar_05_2012,Yes-No Task,
Yes-No Task,31,0,31,0,12.0,-1,False Alarm,1,0,0.1840846999839414,False,-1,stimulus_TestYesNo_Yes-No Task_2020_Mar_05_2012_32,-1,False,12,TestYesNo,2020_Mar_05_2012,Yes-No Task,
Yes-No Task,32,0,32,0,12.0,-1,Correct Rejection,0,0,0.11696539999684319,False,-1,stimulus_TestYesNo_Yes-No Task_2020_Mar_05_2012_33,-1,False,12,TestYesNo,2020_Mar_05_2012,Yes-No Task,
Yes-No Task,33,0,33,0,12.0,-1,Hit,1,1,0.3832754000031855,True,-1,stimulus_TestYesNo_Yes-No Task_2020_Mar_05_2012_34,-1,False,12,TestYesNo,2020_Mar_05_2012,Yes-No Task,
Yes-No Task,34,0,34,0,12.0,-1,Hit,1,1,0.7173445000080392,True,-1,stimulus_TestYesNo_Yes-No Task_2020_Mar_05_2012_35,-1,False,12,TestYesNo,2020_Mar_05_2012,Yes-No Task,
Yes-No Task,35,0,35,0,12.0,-1,Correct Rejection,0,0,0.4006909000163432,False,-1,stimulus_TestYesNo_Yes-No Task_2020_Mar_05_2012_36,-1,False,12,TestYesNo,2020_Mar_05_2012,Yes-No Task,
Yes-No Task,36,0,36,0,12.0,-1,Correct Rejection,0,0,0.4171768000232987,False,-1,stimulus_TestYesNo_Yes-No Task_2020_Mar_05_2012_37,-1,False,12,TestYesNo,2020_Mar_05_2012,Yes-No Task,
Yes-No Task,37,0,37,0,12.0,-1,Correct Rejection,0,0,0.38432800001464784,False,-1,stimulus_TestYesNo_Yes-No Task_2020_Mar_05_2012_38,-1,False,12,TestYesNo,2020_Mar_05_2012,Yes-No Task,
Yes-No Task,38,0,38,0,12.0,-1,Correct Rejection,0,0,0.36711790002300404,False,-1,stimulus_TestYesNo_Yes-No Task_2020_Mar_05_2012_39,-1,False,12,TestYesNo,2020_Mar_05_2012,Yes-No Task,
Yes-No Task,39,0,39,0,12.0,-1,Hit,1,1,0.3674421999894548,True,-1,stimulus_TestYesNo_Yes-No Task_2020_Mar_05_2012_40,-1,False,12,TestYesNo,2020_Mar_05_2012,Yes-No Task,
